timestamp,accX,accY,accZ,gyroX,gyroY,gyroZ
1776612800.3826942,-0.6809339904785157,9.064849548339843,4.343517608642578,0.13093717396259308,-0.015224686823785305,0.21525920927524567
1776612800.50643,0.2796185302734375,8.571475524902343,5.015919342041016,-0.024424046277999878,0.17302313446998596,0.18960070610046387
1776612800.5779922,0.19609222412109376,8.11866714477539,5.478607177734375,0.08095423877239227,-0.02580817975103855,0.045755356550216675
1776612800.6573682,0.5363346862792969,8.45965805053711,5.197491760253906,-0.060070887207984924,-0.05892325937747955,0.13548848032951355
1776612800.7289906,0.5920188903808594,8.451275482177735,4.771028594970703,0.14003093540668488,0.1433129608631134,0.04194333404302597
1776612800.799388,0.6020480346679687,8.22300018310547,5.284311218261719,-0.11254949122667313,-0.18414215743541718,0.12302513420581818
1776612800.8988647,0.4378395080566406,7.98783920288086,5.409001922607422,0.11523450911045074,-0.03171531483530998,-0.03347153216600418
1776612800.9701688,0.042810974121093755,8.682993621826173,4.74453369140625,0.009014038369059563,-0.09389126300811768,0.008852200582623482
1776612801.0398004,-0.02065704345703125,8.213270416259766,4.49590072631836,0.06379566341638565,-0.05107705667614937,-0.04438355192542076
1776612801.111325,0.13217514038085937,8.569080505371094,4.650828552246094,0.04493739455938339,-0.08016040176153183,0.020446283742785454
1776612801.183043,0.19414627075195315,8.312214660644532,4.741240539550781,-0.09865813702344894,-0.03210170567035675,0.08997078239917755
1776612801.2548354,0.2797682189941406,8.554710388183594,4.339476013183594,0.07871755957603455,0.27838173508644104,0.020801512524485588
1776612801.3322322,0.1375639343261719,8.311316528320313,5.037923583984376,0.16680265963077545,0.11994358152151108,-0.0007074684835970402
1776612801.4467716,-0.02903961181640625,8.791218566894532,5.608237609863282,0.43742796778678894,0.009567271918058395,-0.19134823977947235
1776612801.5228415,0.038020935058593754,9.20406005859375,3.8240977478027345,0.47081485390663147,0.3172838091850281,-0.16610893607139587
1776612801.6002393,-0.5986051940917969,9.807754669189453,4.452191619873047,0.08558661490678787,-0.08869598060846329,-0.03778750076889992
1776612801.7202415,-0.4962181091308594,8.425379333496094,3.3254846191406253,0.7289829254150391,0.4846285879611969,-0.11940325051546097
1776612801.794503,-1.2015513610839845,8.328680419921875,4.873565368652344,0.07261645793914795,-0.28476274013519287,-0.24497634172439575
1776612801.9142544,0.44143203735351566,8.06687484741211,2.7309210205078127,-0.26473015546798706,-0.49434733390808105,-0.31936269998550415
1776612801.9820943,-0.39622604370117187,8.919651489257813,2.8744725036621097,-0.06612946838140488,0.29633864760398865,0.03220200911164284
1776612802.050199,-0.8184979248046875,8.72311019897461,2.879861297607422,-0.009909515269100666,0.3071114718914032,-0.0951698049902916
1776612802.1243477,-0.5086422729492188,8.89749755859375,3.458258514404297,-0.02814643271267414,0.15670254826545715,0.15796709060668945
1776612802.2125385,-0.207169189453125,9.134305114746095,2.638413391113281,0.13220055401325226,-0.4852425158023834,0.3508729040622711
1776612802.2891648,-0.25222549438476566,9.323960723876954,3.5140924072265625,-0.5023490786552429,0.49719154834747314,-0.06386460363864899
1776612802.3752027,-0.6141728210449219,8.78208755493164,3.2289353942871095,0.02000902220606804,-0.0009409342892467976,0.13370251655578613
1776612802.460463,-0.4555027770996094,9.045240325927734,3.802093505859375,-0.2631659507751465,0.12685610353946686,0.16643066704273224
1776612802.549508,-0.2625540161132813,9.703870697021484,4.630620574951172,-0.23915952444076538,0.1486901491880417,0.10181039571762085
1776612802.6778557,-0.9397457885742188,9.76404556274414,5.180127868652344,-0.10616972297430038,0.24348947405815125,0.288343220949173
1776612802.8959637,-0.9032217407226563,10.236612854003907,5.991141357421875,-0.6329634785652161,0.3849788308143616,0.09151190519332886
1776612802.9906685,-1.3504916381835939,8.746611328125,5.510041809082032,0.18692302703857422,0.6178364753723145,0.22907723486423492
1776612803.0660849,-0.784368896484375,8.395142211914063,4.77087890625,0.1748349517583847,0.8816078901290894,0.2293904423713684
1776612803.1559248,-0.6318360900878907,7.794890441894531,4.163142700195313,0.2386683076620102,0.9273472428321838,0.4063095450401306
1776612803.2288506,-0.6800358581542969,7.454348602294922,3.7577856445312503,0.379184365272522,0.9455471038818359,0.39075666666030884
1776612803.2977602,-0.7673043823242188,7.455695800781251,2.9089009094238283,0.5193767547607422,0.8996309041976929,0.3988974094390869
1776612803.3685458,-1.457219696044922,7.839048614501953,3.0130842590332034,0.32853999733924866,1.1636950969696045,0.4825587570667267
1776612803.4388936,-1.7772541809082032,7.9854441833496095,2.5439598083496096,0.172410249710083,0.8113803267478943,0.4295395016670227
1776612803.5088437,-1.6905844116210937,7.864944763183594,2.7560687255859375,0.20142069458961487,1.1164402961730957,0.3072868287563324
1776612803.6047933,-1.0172845458984376,9.155261535644533,2.0839663696289064,0.11643535643815994,1.3284111022949219,0.34375399351119995
1776612803.679358,-1.0615924072265626,9.264534301757813,2.7177484130859377,0.07252654433250427,0.7093060612678528,0.5116659998893738
1776612803.7699249,-0.7738906860351563,8.704848175048829,3.53744384765625,-0.06414581835269928,1.0570694208145142,0.2750908136367798
1776612803.8436882,0.15402969360351562,9.028475189208985,2.608775024414063,0.23245805501937866,1.3235249519348145,0.3642169237136841
1776612803.9157774,0.041613464355468754,9.03296585083008,2.1644989013671876,0.0044710757210850716,1.0559464693069458,0.26814794540405273
1776612803.9872267,-0.013022918701171875,9.535620574951173,2.1763243103027343,-0.09629619121551514,1.1407623291015625,0.2986147403717041
1776612804.057128,-0.1932481384277344,9.598040771484376,2.5475523376464846,-0.13377325236797333,1.1680305004119873,0.31147143244743347
1776612804.1239405,-0.4592449951171875,9.341923370361329,1.8634748840332032,0.15005269646644592,1.1086419820785522,0.32020100951194763
1776612804.2223845,-0.31913635253906253,9.371412048339844,2.0010388183593752,0.0436885729432106,1.0082533359527588,0.24829325079917908
1776612804.293817,-0.43499542236328126,9.678124237060548,1.8532960510253906,0.20399606227874756,0.9394957423210144,0.2365420162677765
1776612804.3843904,-0.6936575317382813,10.096653900146485,1.8935623168945312,0.2557726204395294,0.8625641465187073,0.08950629830360413
1776612804.4556167,-0.38739440917968754,9.853709106445313,1.4006373596191406,0.5265650153160095,0.9584751129150391,0.0831008180975914
1776612804.523132,-0.9044192504882813,10.55095916748047,1.9597247314453126,-0.40893977880477905,0.7126756906509399,0.0959806963801384
1776612804.593187,-0.621357879638672,8.227640533447266,3.1358290100097657,0.22631673514842987,0.8983562588691711,-0.03688492998480797
1776612804.6681948,-2.138902130126953,9.616901550292969,1.171014862060547,-0.3131181299686432,1.2532206773757935,-0.0525888167321682
1776612804.7401361,-1.1536509704589843,9.265582122802735,3.4205369567871093,0.0028396761044859886,0.6453291177749634,0.28494420647621155
1776612804.8338914,-0.787811737060547,9.173074493408203,1.2290940856933594,-0.26747438311576843,0.4194027781486511,0.06877943128347397
1776612804.9099514,-1.008153533935547,9.186396789550782,1.1921209716796877,-0.08607808500528336,0.37786027789115906,0.12865953147411346
1776612804.9993625,-1.1802955627441407,9.499844970703126,1.3485456848144532,0.030437231063842773,0.14752371609210968,0.16663166880607605
1776612805.0731497,-1.0641371154785157,9.942474517822266,0.9228309631347656,0.010830417275428772,0.13633732497692108,0.21114930510520935
1776612805.1466343,-0.9951306152343751,10.399923248291016,2.2641915893554687,0.13769866526126862,-0.0036746833939105272,0.13461194932460785
1776612805.2145574,-0.9677375793457031,10.728639678955078,2.049987030029297,-0.07610324025154114,-0.10810613632202148,0.10501357913017273
1776612805.2848945,-0.27812164306640624,9.383387145996094,4.087250518798828,-0.03809843584895134,-0.16567108035087585,-0.16894790530204773
1776612805.362755,-0.257464599609375,9.10107421875,0.8616082763671875,0.14623986184597015,-0.006260514724999666,-0.07755784690380096
1776612805.4486032,-0.21046234130859376,8.831933898925781,3.2457005310058595,0.26814061403274536,0.20496410131454468,-0.0009381459094583988
1776612805.5189004,-0.3251239013671875,8.614585876464844,0.3261717224121094,-0.1323803961277008,0.25919315218925476,0.028886374086141586
1776612805.6136665,-0.5146298217773437,9.763895874023438,2.1116587829589846,-0.10178890824317932,0.4053197503089905,-0.02361389249563217
1776612805.6854708,-0.3983216857910156,9.257349243164063,1.1066487121582032,0.15550851821899414,0.48124876618385315,0.1814175397157669
1776612805.7554417,-0.45235931396484375,9.821226654052735,1.4894027709960938,0.06838822364807129,0.5239017605781555,0.11607130616903305
1776612805.8244255,-0.29413833618164065,10.238409118652344,1.8345849609375,0.31324175000190735,0.4966224730014801,0.1464388072490692
1776612805.8982747,-0.9722282409667969,10.547815704345703,3.594624938964844,-0.7284344434738159,0.7346819639205933,0.11243848502635956
1776612805.968821,-1.4359638977050782,8.543783111572266,3.3820669555664065,0.13762637972831726,0.6693808436393738,0.15952983498573303
1776612806.0642033,-2.4795936584472655,9.722881164550781,1.8772462463378907,-0.7381868958473206,0.9245448112487793,0.023030294105410576
1776612806.138473,-1.0777587890625,8.475974121093751,1.9212547302246095,0.19901295006275177,0.8095163106918335,0.32247665524482727
1776612806.4995105,-1.3030403137207032,8.835526428222657,1.7112414550781252,-0.07477593421936035,0.5446792244911194,0.07793714106082916
1776612806.5673902,-0.7252418518066407,10.961705017089844,2.811453552246094,-0.5025403499603271,-0.0239088274538517,0.22947637736797333
1776612806.6789312,-0.18336868286132812,8.67086883544922,1.1792477416992189,0.39593949913978577,0.26226529479026794,0.09354015439748764
1776612806.7522285,-0.5093907165527344,9.209149475097657,3.610042877197266,-0.417715460062027,0.5805314183235168,-0.10922123491764069
1776612806.8461134,-0.3950285339355469,8.460705871582032,1.1581416320800781,-0.3583105504512787,0.7903481125831604,0.13198761641979218
1776612806.919256,-0.4358935546875,9.142088928222657,2.369273071289063,-3.862474113702774e-05,1.0434582233428955,0.22840790450572968
1776612806.9876661,0.030087432861328128,9.505084075927735,1.563798065185547,0.19772931933403015,1.0512051582336426,0.25636497139930725
1776612807.0567384,-0.029488677978515627,9.698631591796875,1.4292279052734376,0.2183418869972229,1.2530086040496826,0.24584203958511353
1776612807.1267126,-0.32946487426757814,9.970017242431641,1.999541931152344,0.2117585837841034,1.2085331678390503,0.24467554688453674
1776612807.1971354,-0.33485366821289064,10.374775543212891,0.9571096801757814,-0.4566437602043152,1.4658725261688232,0.22289997339248657
1776612807.29207,-0.8617579650878907,8.709039459228515,3.4488281250000004,-0.1718599498271942,1.2420170307159424,0.3752002418041229
1776612807.3674493,-1.3768368530273438,8.992549896240234,1.2186158752441407,-0.1495157927274704,1.5281230211257935,0.3173108398914337
1776612807.455011,-1.708846435546875,9.21364013671875,3.975732421875,0.29185715317726135,1.341016411781311,0.47160378098487854
1776612807.5258193,-1.5281721496582032,8.679401092529297,1.7197737121582033,-0.27851301431655884,1.1884111166000366,0.11908695846796036
1776612807.5991895,-1.0388397216796876,9.22366928100586,1.975741424560547,-0.07468283921480179,1.1989179849624634,0.34002843499183655
1776612807.6728024,-1.056353302001953,9.529483337402345,1.7390835571289063,0.012027745135128498,1.078279733657837,0.33632609248161316
1776612807.7454703,-0.9298663330078125,10.219248962402345,1.5055691528320314,0.0006749909371137619,0.7623502016067505,0.5270557999610901
1776612807.8191183,-0.7146139526367188,9.947713623046875,2.4034020996093752,0.41883188486099243,0.6146761178970337,0.38471922278404236
1776612807.906288,-0.6230044555664063,9.816286926269532,5.032085723876953,-0.8979201912879944,0.24018500745296478,0.04789401963353157
1776612807.9811935,-1.2240046691894533,8.98416732788086,1.6241226196289062,0.10373726487159729,1.0667433738708496,-0.1428188979625702
1776612808.0695055,-1.3962963867187501,8.93581787109375,4.2926234436035156,-0.11076555401086807,1.5572373867034912,0.19783374667167664
1776612808.1434848,-0.7677534484863282,9.006321258544922,2.5141717529296876,-0.599672794342041,1.5785884857177734,0.30629971623420715
1776612808.214056,-0.2625540161132813,8.934919738769532,3.63324462890625,0.00550355389714241,1.1496795415878296,0.520690381526947
1776612808.283726,0.13187576293945313,8.603658599853516,2.6191035461425782,-0.15694591403007507,0.9393436312675476,0.31558534502983093
1776612808.3546498,0.03308120727539063,8.924441528320314,1.9390676879882813,-0.024121375754475594,0.7136039137840271,0.3019825518131256
1776612808.4246807,0.22827529907226562,9.328900451660157,2.162852325439453,-0.07142838090658188,0.6494497060775757,0.17124390602111816
1776612808.5206347,0.05134323120117188,9.877808990478517,1.7787510681152345,-0.16241219639778137,0.7908486723899841,-0.05415566265583038
1776612808.5921311,-0.08562194824218751,10.050699462890625,1.964963836669922,-0.001521056517958641,0.47966036200523376,-0.08697623759508133
1776612808.6844122,-0.1778302001953125,10.242301025390626,1.5444882202148438,0.006998478434979916,0.3440123498439789,0.24053746461868286
1776612809.8516612,0.11346405029296876,9.367969207763672,2.306254119873047,0.2312035709619522,0.6404417157173157,-0.042832765728235245
1776612809.923581,-0.6866221618652344,10.257569274902345,3.259322204589844,0.1786278784275055,0.5163478851318359,0.09002383053302765
1776612809.9898307,-0.43349853515625003,10.50216064453125,2.841391296386719,-0.2764618396759033,0.6427279710769653,-0.016763795167207718
1776612810.0583858,-1.415306854248047,9.150770874023438,4.881947937011719,-0.0027856817469000816,0.4394505023956299,0.18646274507045746
1776612810.1318707,-0.5571414184570312,8.396339721679688,2.1034259033203124,0.5850437879562378,0.5397617220878601,0.09686391800642014
1776612810.2024431,-1.3753399658203125,8.910819854736328,5.154980163574219,-0.3064938187599182,0.29549580812454224,0.2414056658744812
1776612810.2703536,-0.5673202514648438,8.379275207519532,1.5724800109863282,0.04879126697778702,0.5768100619316101,0.1437443196773529
1776612810.3409538,-0.9843530273437501,8.873697052001953,2.7222390747070313,-0.019704770296812057,0.22914648056030273,0.1772831380367279
1776612810.41412,-0.8702902221679688,9.079668731689454,1.5958314514160157,-0.006293509155511856,0.2759172022342682,0.10771605372428894
1776612810.4832022,-1.1708651733398439,9.558373260498048,1.8256036376953126,0.055424515157938004,0.12216266989707947,0.1784122884273529
1776612810.5505178,-0.7969427490234375,10.220147094726563,2.139800262451172,0.13301315903663635,0.12094451487064362,0.2106894999742508
1776612810.6366563,-0.22602996826171876,10.403066711425781,2.0972886657714844,0.30241483449935913,0.220180481672287,0.23722712695598602
1776612810.7045927,-0.000149688720703125,10.34843032836914,3.710034942626953,-0.7222651839256287,-0.41548052430152893,0.02580457739531994
1776612810.7744453,-0.04805007934570313,8.047415313720704,2.4905209350585937,0.8381277322769165,0.29893380403518677,-0.11635040491819382
1776612810.8446238,-0.6563850402832031,9.857301635742187,4.1920326232910154,-0.7383202314376831,-0.2192678302526474,0.049383245408535004
1776612810.9168003,-0.2609074401855469,8.60575424194336,2.0881576538085938,0.5604907274246216,0.4611663222312927,-0.15509386360645294
1776612810.988228,-0.5278024291992188,8.702902221679688,2.118544464111328,-0.05711153522133827,0.40948784351348877,0.09697656333446503
1776612811.0609038,0.09355545043945312,9.093589782714844,1.610351257324219,0.2239724099636078,0.3051934242248535,0.012163914740085602
1776612811.1341743,0.06256988525390625,9.251661071777344,1.1448193359375,0.1561518907546997,0.32900670170783997,0.07094007730484009
1776612811.2101092,-0.7470964050292969,10.609038391113282,2.45968505859375,0.13273432850837708,0.37415173649787903,-0.021049460396170616
1776612811.2820203,-0.613125,10.85662353515625,1.6829502868652344,-0.18536598980426788,0.5134001970291138,-0.039699800312519073
1776612811.352995,-1.1930191040039062,9.39042251586914,4.61325668334961,-0.2549176514148712,0.40326204895973206,0.06664487719535828
1776612811.4213407,-0.8945397949218751,8.404273223876954,1.0289602661132813,0.3572175204753876,0.47135457396507263,0.04553356021642685
1776612811.4917772,-1.0211764526367189,9.355245666503906,4.79243408203125,-0.3571793735027313,-0.010720368474721909,0.33142125606536865
1776612811.5643935,-0.18007553100585938,8.346792755126954,1.1018586730957032,0.03695718199014664,0.2230488806962967,0.14598263800144196
1776612811.63599,-0.7217990112304687,9.089398498535157,2.0345690917968753,-0.11746592819690704,0.003026301972568035,0.13118217885494232
1776612811.712267,-0.678838348388672,9.311386871337891,1.4302757263183594,0.1400204449892044,-0.1293850690126419,0.10782620310783386
1776612811.7851436,-0.5557942199707031,10.366991729736329,1.6622932434082032,-0.0029702773317694664,-0.45147088170051575,0.06127225607633591
1776612811.8593159,-0.162861328125,11.019035797119141,2.990930328369141,0.28184619545936584,-0.46085792779922485,0.04458919167518616
1776612811.9298606,0.29294082641601565,10.94898147583008,3.576362915039063,-0.5339856147766113,-0.6563571691513062,-0.15512773394584656
1776612812.0009854,0.18471588134765626,8.015381927490235,2.331701202392578,0.751071035861969,-0.36294111609458923,-0.3844524025917053
1776612812.0714762,0.082628173828125,9.267977142333985,3.8811291503906253,-0.5085299611091614,-0.14056243002414703,-0.13879017531871796
1776612812.1483977,0.094603271484375,8.363258514404297,1.6289126586914062,-0.017720911651849747,0.008579757064580917,-0.23698127269744873
1776612812.222714,-0.05403762817382813,9.114246826171875,1.979333953857422,-0.05929200351238251,-0.06526463478803635,-0.03430429473519325
1776612812.292883,0.15896942138671877,9.427096252441407,1.7187258911132814,0.11702614277601242,0.05557456612586975,-0.09349226951599121
1776612812.366328,-0.12409194946289064,9.497749328613281,1.3392649841308595,0.15318810939788818,-0.05809002369642258,-0.02201920934021473
1776612812.4385917,-0.3573069763183594,10.153236236572265,1.4184503173828125,0.2345333844423294,0.09701187908649445,-0.14125211536884308
1776612812.513843,-0.1926493835449219,10.499466247558594,1.3796809387207032,0.14284084737300873,0.06658776849508286,-0.11390301585197449
1776612812.5846632,-0.18905685424804688,10.25637176513672,4.4547363281250005,-0.3373221457004547,0.02272912487387657,-0.07688671350479126
1776612812.6551995,-0.2585124206542969,8.487649841308594,1.5161970520019532,-0.0184194166213274,-0.16338549554347992,-0.2571454346179962
1776612812.7225754,-0.19429595947265627,9.586365051269532,4.457879791259765,-0.04824729263782501,-0.3211716413497925,0.2556065022945404
1776612812.7888095,0.16076568603515626,8.105943603515625,1.0518626403808595,0.12772151827812195,-0.19941237568855286,0.04905625805258751
1776612812.8580694,-0.4836442565917969,8.780890045166016,1.8503022766113282,-0.195725679397583,-0.4146345853805542,0.10700088739395142
1776612812.9277775,-0.250279541015625,8.934171295166015,1.661844177246094,-0.18903809785842896,-0.478473424911499,-0.06922319531440735
1776612812.9991791,-0.7012916564941407,9.829160156250001,1.2994477844238281,-0.353929728269577,-0.6586354970932007,-0.029216589406132698
1776612813.072011,-0.20836669921875,10.51218978881836,2.7873536682128908,-0.011369230225682259,-0.4817911684513092,0.006743188016116619
1776612813.147027,-0.21420455932617188,11.023676147460938,2.808160400390625,-0.2942592203617096,-0.449540913105011,-0.06048215553164482
1776612813.217248,0.5846841430664063,8.193212127685547,4.867877197265625,0.15416815876960754,-0.497079998254776,-0.3186314105987549
1776612813.287116,-0.36060012817382814,9.039252777099609,2.243085479736328,-0.6951873898506165,-0.5814480781555176,-0.17482158541679382
1776612813.3562565,0.33365615844726565,8.216413879394532,4.499642944335938,-0.23943890631198883,-0.3130294978618622,-0.13001017272472382
1776612813.4288507,-0.19235000610351563,8.330925750732423,2.3812481689453127,-0.20561067759990692,0.0703715831041336,-0.14475417137145996
1776612813.4973042,-0.2582130432128906,8.81606689453125,3.0099407958984377,0.22763676941394806,-0.07125589996576309,0.005357820075005293
1776612813.5693688,0.09355545043945312,9.284891967773438,2.2647903442382815,0.2531086802482605,0.15771484375,0.018779274076223373
1776612813.6410353,-0.30326934814453127,10.001900939941407,2.9964688110351565,0.20419715344905853,0.34999847412109375,-0.02493937313556671
1776612813.7132409,-0.17872833251953127,10.278825073242189,2.4306454467773437,0.341600239276886,0.3349929749965668,0.1033007875084877
1776612813.7840216,-0.6481521606445313,9.893226928710938,5.143753509521485,-0.43270617723464966,0.28583046793937683,0.1426444947719574
1776612813.8554292,-0.6231541442871094,8.182284851074218,2.741848297119141,0.7707237005233765,0.47441738843917847,0.03106229193508625
1776612813.9296834,-0.48379394531250003,9.139095153808594,4.929998016357422,-0.49921050667762756,-0.2701452970504761,0.2544557452201843
1776612813.999471,-0.125738525390625,8.52866455078125,2.567311248779297,0.09765032678842545,0.21982261538505554,0.007507646456360817
1776612814.074433,-0.4544549560546875,8.841064910888672,2.77582763671875,-0.013481845147907734,-0.22420893609523773,0.13837753236293793
1776612814.1473472,-0.6517446899414063,9.224417724609376,2.664459228515625,0.2833035886287689,-0.09354527294635773,-0.00043806713074445724
1776612814.2196178,-0.49187713623046875,9.722432098388673,2.108964385986328,0.15530408918857574,-0.37124595046043396,0.019078409299254417
1776612814.2887363,-0.1167572021484375,10.040221252441407,3.0612840270996093,0.2794128954410553,-0.2808873951435089,0.04118739813566208
1776612814.3576674,-0.08247848510742188,10.39722885131836,3.3986824035644534,-0.3257749080657959,-0.4513641893863678,-0.055529575794935226
1776612814.4296846,0.4017645263671875,8.453221435546876,3.8309834289550784,0.5573269128799438,-0.3795176148414612,-0.3496302366256714
1776612814.4999852,0.3393443298339844,9.48951644897461,3.194806365966797,-0.5587132573127747,-0.5646223425865173,-0.0048951152712106705
1776612814.5719972,0.1986369323730469,8.392298126220703,3.3057257080078126,0.3360844552516937,-0.013333001174032688,-0.23728419840335846
1776612814.6433105,-0.0892144775390625,8.710386657714844,2.0371138000488282,-0.11695671826601028,-0.04615925997495651,-0.017246399074792862
1776612814.712917,0.0664617919921875,9.395362243652345,2.7102639770507815,-0.012795606628060341,-0.09324641525745392,-0.08392862975597382
1776612814.7875383,-0.0161663818359375,9.668095092773438,2.5131239318847656,0.12788252532482147,0.13963890075683594,0.017798662185668945
1776612814.8571384,-0.20657043457031252,9.662406921386719,2.4105871582031253,0.20675019919872284,0.21658067405223846,-0.06120726466178894
1776612814.9262896,0.15777191162109375,10.023456115722658,1.7568965148925781,0.19287949800491333,0.17550629377365112,0.04057405889034271
1776612814.9974124,-0.5881269836425782,9.395062866210939,2.960094451904297,0.062136322259902954,0.274416983127594,-0.05722760781645775
1776612815.0705805,-0.6409671020507813,9.054670715332032,3.2959959411621096,-0.0780923068523407,-0.2087184637784958,-0.02026676945388317
1776612815.1430879,-0.7499404907226563,8.987759857177736,2.9930259704589846,-0.14817386865615845,0.10304160416126251,-0.06191436946392059
1776612815.213034,-0.6246510314941407,9.131011962890625,3.1796878051757815,-0.1063731238245964,-0.04742290824651718,0.03108188509941101
1776612815.282143,0.04834945678710938,9.27156967163086,3.7947587585449223,-0.10495012253522873,-0.6882553696632385,-0.17241841554641724
1776612815.353313,-0.009580078125,9.201365661621095,2.8735743713378907,-0.04660285636782646,-0.8860464692115784,-0.2877536416053772
1776612815.4244206,0.07843688964843751,9.131760406494141,3.5259178161621096,-0.02861383557319641,-1.369141697883606,-0.3812103271484375
1776612815.4945922,-0.2797682189941406,8.976832580566407,3.8011953735351565,0.15443505346775055,-1.6949326992034912,-0.40760061144828796
1776612815.5662892,-0.12723541259765625,9.225016479492188,3.932322692871094,-0.08544156700372696,-2.1923303604125977,-0.4918007552623749
1776612815.633863,0.319735107421875,8.728648681640625,4.608316955566407,-0.021231409162282944,-2.3797385692596436,-0.7147536873817444
1776612815.7062273,0.7467970275878907,8.256231079101562,4.376299438476563,-0.05863514915108681,-2.628755569458008,-0.7953933477401733
1776612815.780507,0.6852749633789063,8.514144744873047,4.31387924194336,-0.2922159433364868,-2.5492281913757324,-0.6537737250328064
1776612815.8506489,0.7014413452148438,8.863667907714845,5.324427795410156,-0.4771350622177124,-2.6378352642059326,-0.7657691240310669
1776612815.9219658,0.7607180786132813,8.976832580566407,5.077142028808594,-0.2824685573577881,-2.3090529441833496,-0.8101949691772461
1776612815.9920552,0.32048355102539067,8.915011138916016,4.399052124023438,-0.16379974782466888,-2.114133834838867,-0.7787142992019653
1776612816.0643005,0.18067428588867188,8.764573974609375,4.642895050048828,-0.2735827565193176,-1.915337085723877,-0.9552356004714966
1776612816.1372724,0.243094482421875,8.525670776367187,4.281097412109375,-0.08889485895633698,-1.5239747762680054,-0.8583281636238098
1776612816.206499,0.7000941467285157,8.51384536743164,4.027075653076172,-0.20606550574302673,-1.38937246799469,-0.6350277066230774
1776612816.2747033,0.9138496398925782,8.816665649414062,4.159101104736329,0.051393136382102966,-1.2254698276519775,-0.6015312671661377
1776612816.348073,0.298179931640625,9.123677215576173,4.76653793334961,-0.30269914865493774,-1.023720622062683,-0.4847470819950104
1776612816.4214876,-1.097966766357422,8.739875335693359,3.570375366210938,0.17909161746501923,-0.8404842019081116,-0.4414137899875641
1776612816.4922829,-0.3243754577636719,9.332942047119142,5.001698913574219,-0.3481545150279999,-1.5037741661071777,-0.21840226650238037
1776612816.5644634,-0.8399034118652344,8.173303527832031,4.00447265625,-0.17105525732040405,-0.8808326721191406,-0.6914982199668884
1776612816.6376858,-1.498982849121094,7.995922393798828,3.8249958801269535,-0.2397540658712387,-0.7917612791061401,-0.578935444355011
1776612816.7106004,-0.7099736022949219,8.580756225585938,4.171525268554688,-0.1612386703491211,-0.8815865516662598,-0.5074265599250793
1776612816.7808151,-0.19249969482421875,8.978329467773438,4.2325982666015625,0.07649343460798264,-1.0008699893951416,-0.6056851148605347
1776612816.8561547,-0.4549040222167969,9.178463287353516,3.5777101135253906,0.4197501540184021,-0.9055078625679016,-0.38031789660453796
1776612816.9379106,-1.0515632629394531,9.436975708007813,3.697461090087891,0.2803340256214142,-0.7473984360694885,-0.2761335074901581
1776612818.0441678,0.4327500915527344,8.255782012939454,2.9053083801269532,-0.05361358821392059,0.1397087275981903,-0.06640008836984634
1776612818.1130006,1.0856922912597657,8.509055328369142,4.750072174072266,0.05922788754105568,0.10793479532003403,0.2654401361942291
1776612818.1803834,0.9635462951660156,8.515491943359375,3.1978001403808594,0.3452244997024536,0.21638751029968262,0.15546846389770508
1776612818.2469294,0.3921844482421875,9.42634780883789,2.9722192382812502,0.17750799655914307,-0.1295934021472931,0.09787255525588989
1776612818.3155897,0.14864089965820312,10.09740234375,3.3365615844726566,0.07809603959321976,-0.025691691786050797,0.06559126824140549
1776612818.3860745,-0.12723541259765625,10.307565307617187,3.5916311645507815,0.3285067081451416,0.1620277613401413,-0.11917668581008911
1776612818.4571438,-0.6050418090820313,9.700128479003906,7.352111206054688,-0.48876649141311646,0.11426028609275818,-0.21278521418571472
1776612818.5297904,0.5010081481933594,8.191116485595703,4.444707183837891,-0.05615544691681862,0.10024042427539825,-0.3447902500629425
1776612818.6004114,-0.04999603271484375,7.854915618896484,5.614524536132813,0.2184203863143921,0.2113131880760193,-0.14523997902870178
1776612818.674381,-0.26180557250976566,7.4748559570312505,3.000660095214844,-0.04826030880212784,0.27635446190834045,-0.1946852207183838
1776612818.746915,-0.34338592529296874,8.232280883789063,4.1146435546875,-0.19540104269981384,0.026790279895067215,0.02194850891828537
1776612818.8166814,0.0676593017578125,8.567583618164063,3.7748501586914065,0.20265081524848938,0.17954960465431213,0.039385803043842316
1776612818.8886693,0.041613464355468754,9.050030364990235,3.2289353942871095,0.0015734443441033363,0.123520128428936,0.005092225037515163
1776612818.9592414,-0.8972341918945312,9.420659637451172,3.8338275146484375,0.12767793238162994,0.4051421284675598,-0.27084293961524963
1776612819.0316117,-0.8686436462402344,9.471404113769532,3.1921119689941406,0.2856939136981964,0.21662354469299316,-0.11046765744686127
1776612819.1036208,-1.1404783630371094,9.047186279296875,7.168143768310547,-0.6537760496139526,0.43166157603263855,-0.1329992711544037
1776612819.1747024,-1.894310760498047,8.317304077148439,3.9106178283691406,-0.16295592486858368,0.39360520243644714,0.0058616031892597675
1776612819.2459757,0.09280700683593751,8.001311187744141,4.610113220214844,0.24179404973983765,-0.1279401183128357,0.23632541298866272
1776612819.3143847,-0.3852987670898438,8.27329559326172,3.2013926696777344,0.1798258274793625,0.1927550584077835,0.11817431449890137
1776612819.3849058,-0.5282514953613282,8.515491943359375,3.6747084045410157,0.08113207668066025,-0.332941472530365,0.13583020865917206
1776612819.4540954,-0.6348298645019531,9.104217681884766,2.9596453857421876,0.13361872732639313,-0.3412201702594757,-0.05849522352218628
1776612819.526565,-0.41388931274414065,9.756411437988282,3.404520263671875,0.23853632807731628,-0.5180961489677429,-0.009518156759440899
1776612819.6017513,-0.4290078735351563,10.386600952148438,3.941753082275391,0.11575965583324432,-0.41576647758483887,-0.02707083523273468
1776612819.673953,0.40954833984375,8.19904998779297,7.298522644042969,-0.5510566234588623,-1.002092957496643,-0.28717273473739624
1776612819.7465727,0.42466690063476564,8.877588958740235,2.5963508605957033,-0.5431014895439148,-0.5909225344657898,-0.3757333755493164
1776612819.8167157,0.37242553710937504,7.889942779541016,5.842949523925782,0.4562922418117523,-0.30791786313056946,-0.1933102011680603
1776612819.8892403,-0.22183868408203125,7.6701997375488284,2.977757720947266,-0.25616884231567383,-0.48019543290138245,-0.4044792652130127
1776612819.9619129,-0.07708969116210938,8.43959976196289,4.211043090820313,0.13765382766723633,-0.42717862129211426,-0.28578948974609375
1776612820.0349298,0.11990066528320313,9.108408966064454,3.4855018615722657,0.11723403632640839,-0.22286587953567505,-0.1779528558254242
1776612820.1063402,-0.37242553710937504,9.712253265380859,4.092489624023438,0.12487970292568207,0.09106728434562683,-0.1311131715774536
1776612820.1770298,-0.3519181823730469,9.994117126464845,3.853287048339844,-0.20496252179145813,-0.07086487114429474,-0.05570681393146515
1776612820.2483566,-0.7065307617187501,8.423583068847657,7.265142059326172,-0.247512087225914,-0.1816067397594452,0.018154989928007126
1776612820.3201263,-0.7409591674804688,8.274642791748047,3.0325437927246095,-0.1133686974644661,0.5669078826904297,-0.32952550053596497
1776612820.3911266,-0.6303392028808594,7.467221832275391,5.340145111083984,-0.48534393310546875,-1.156040906906128,0.6007620692253113
1776612820.4604456,-0.08846603393554688,7.218139801025391,4.872816925048828,0.09756191074848175,-0.7157764434814453,0.14122171700000763
1776612820.5297654,-0.04296066284179688,8.937464447021485,4.2291554260253905,0.4787048399448395,-0.3496246635913849,-0.1377561390399933
1776612820.598835,-0.5897735595703125,8.439300384521484,3.4620007324218753,0.4381844401359558,-0.38756147027015686,-0.22567138075828552
1776612820.6705909,-0.3429368591308594,9.435778198242188,3.896098022460938,0.5695598125457764,-0.6857102513313293,-0.047505903989076614
1776612820.7427847,0.6348298645019531,9.584718475341797,4.186494140625,0.4222838878631592,-0.743040144443512,-0.0852215513586998
1776612820.8152466,0.8574169921875,9.538314971923828,4.5512855529785154,-0.2844383716583252,-0.9757398366928101,-0.3013099431991577
1776612820.8856874,0.6171665954589844,7.932154998779297,3.7381764221191407,0.47669750452041626,-1.1470959186553955,-0.6180223226547241
1776612820.954541,1.5796650695800782,9.450148315429688,5.017865295410156,-0.7133070826530457,-0.9989548325538635,-0.46330946683883667
1776612821.0283592,0.7574249267578126,7.904312896728516,2.5092320251464844,0.4040803909301758,-0.6048852205276489,-0.3628327548503876
1776612821.0984125,0.4237687683105469,8.55545883178711,2.93389892578125,-0.12641674280166626,-0.6826857924461365,-0.2940189242362976
1776612821.1697989,0.30731094360351563,9.168733520507812,2.9318032836914063,0.10370662063360214,-0.5868357419967651,-0.3274860978126526
1776612821.241408,0.39787261962890624,9.917177124023437,3.220403137207031,0.05951091647148132,-0.27860888838768005,-0.22827009856700897
1776612821.31256,-0.21555175781250002,10.524015197753906,3.16142578125,0.16044524312019348,0.0009516463615000248,-0.17265556752681732
1776612821.381079,-0.7704478454589844,9.722731475830079,6.409072265625,-0.6010090112686157,-0.11671841889619827,0.15819910168647766
1776612821.448103,-0.2728825378417969,7.8903918457031255,2.490670623779297,0.7198464870452881,0.2877872586250305,-0.19205540418624878
1776612821.5183587,-0.7479945373535156,9.77407470703125,5.996530151367188,-0.40643665194511414,-0.475486159324646,0.4513454735279083
1776612821.5876825,0.4613406372070313,7.730524291992188,2.592309265136719,0.3978111147880554,0.05577141419053078,-0.14474569261074066
1776612821.6576974,-0.11331436157226563,8.560548248291017,2.542313232421875,-0.1537594497203827,-0.408322274684906,0.22372318804264069
1776612821.7279332,-0.23860382080078127,8.749904479980469,3.096909942626953,0.40398842096328735,-0.2269640415906906,-0.05165600776672363
1776612821.798372,-0.4087998962402344,9.529932403564453,2.5641677856445315,0.05855893716216087,-0.4476097524166107,-0.04568272829055786
1776612821.8669562,0.7804769897460938,10.324180755615235,3.873644714355469,0.13991868495941162,-0.402529776096344,0.00222196476534009
1776612821.9365816,0.9726773071289063,10.876532135009766,5.176984405517579,-0.5882355570793152,-0.3748478889465332,0.052313245832920074
1776612822.0086222,0.9223818969726563,7.964038696289063,1.180594940185547,0.6344363689422607,-0.4155676066875458,-0.4999200701713562
1776612822.080373,0.8063731384277344,9.070986785888673,5.1201026916503904,-0.3477485775947571,-0.22368231415748596,0.02624274045228958
1776612822.1515687,0.6617738342285157,8.156987457275392,2.0276834106445314,0.061904892325401306,-0.0746980533003807,-0.2338864654302597
1776612822.2210395,0.06840774536132813,8.457712097167969,3.3160542297363285,-0.052527524530887604,-0.2641969621181488,-0.19349727034568787
1776612822.2902012,0.3706292724609375,9.417067108154297,3.649860076904297,0.13452152907848358,-0.10384964942932129,-0.22295579314231873
1776612822.361371,0.12663665771484375,9.706565093994142,3.6212695312500003,0.24033904075622559,-0.05883154645562172,-0.03556868061423302
1776612822.433364,0.269439697265625,9.406439208984375,4.888085174560547,-0.08024484664201736,-0.24681951105594635,-0.3768159747123718
1776612822.5047417,-0.9575587463378906,9.61645248413086,2.714754638671875,-0.12346196174621582,-0.4277527630329132,-0.43944883346557617
1776612822.579679,0.23486160278320314,8.640332336425782,3.909270629882813,0.22099216282367706,-1.5174649953842163,-0.3413477838039398
1776612822.6521115,0.18770965576171875,8.881929931640625,2.160008239746094,0.3069753050804138,-1.4033045768737793,-0.6909262537956238
1776612822.723244,0.23037094116210938,8.906179504394531,2.0889060974121096,0.04200654476881027,-1.3843917846679688,-0.2586494982242584
1776612822.7950864,-0.24923171997070315,9.123976593017579,2.390079803466797,-0.024956293404102325,-1.5864803791046143,-0.16824227571487427
1776612822.8661988,-0.5661227416992187,9.370962982177735,2.8586054992675782,-0.01241346076130867,-1.17659592628479,-0.21938456594944
1776612822.9370377,-0.6556365966796875,9.999954986572266,3.459306335449219,-0.21479973196983337,-0.6877952814102173,-0.2094714641571045
1776612823.0059783,1.1666738891601562,9.863289184570313,3.932173004150391,-0.5301547646522522,-1.3339147567749023,-0.01495368406176567
1776612823.072742,1.8916163635253906,9.471404113769532,2.6467959594726564,-0.16474467515945435,-1.165919542312622,-0.25424879789352417
1776612823.1417265,0.8015830993652344,8.700058135986328,2.4888743591308593,-0.1463478058576584,-0.9793036580085754,-0.31090280413627625
1776612823.209351,0.7656578063964844,9.444759521484375,2.6430537414550783,0.0484854057431221,-1.0651662349700928,-0.3425600528717041
1776612823.28821,1.2175680541992189,8.966803436279298,2.0005897521972655,0.04789336025714874,-0.9856488704681396,-0.2422635704278946
1776612823.362646,0.8631051635742188,9.363029479980469,1.9004479980468751,0.09235555678606033,-0.647490382194519,-0.4185667932033539
1776612823.432973,0.7002438354492188,9.571246490478517,1.5528707885742188,-0.022985856980085373,-0.48454612493515015,-0.3185061812400818
1776612823.5040364,0.9217831420898438,9.787097625732422,2.1727317810058593,0.03469771891832352,-0.3026212155818939,-0.33872753381729126
1776612823.5734937,0.9415420532226563,9.66914291381836,2.2017713928222657,0.04026293009519577,-0.30398210883140564,-0.5014035701751709
1776612823.6415362,0.18561401367187502,9.965077514648438,5.711822204589844,-0.6143936514854431,-0.8080978393554688,-0.1809091567993164
1776612823.7093985,0.6653663635253907,8.495733032226562,2.264490966796875,0.16942943632602692,-0.7116550803184509,-0.5444284677505493
1776612823.7804687,-1.0316546630859376,9.290280761718751,5.760021972656251,-0.3441714942455292,-1.1359792947769165,-0.038221947848796844
1776612823.8520327,0.43739044189453125,8.077203369140625,2.412982177734375,-0.23792798817157745,-0.6445661187171936,-0.3048686683177948
1776612823.9231207,-0.15058685302734376,8.937314758300781,3.8743931579589845,-0.10683868080377579,-1.1677802801132202,-0.18030819296836853
1776612823.9929743,-0.19878662109375,9.073381805419922,2.7059230041503906,0.09805948287248611,-0.9169982075691223,-0.3128770589828491
1776612824.0646267,-0.3351530456542969,9.426198120117188,2.652184753417969,0.028501540422439575,-0.7559940218925476,-0.18542087078094482
1776612824.1367204,0.1429527282714844,9.880802764892579,3.5974690246582033,0.0037166383117437363,-0.9441041946411133,-0.2572876513004303
1776612824.204721,0.3993695068359375,10.063722381591797,3.483106842041016,0.030338674783706665,-0.8446483016014099,-0.2691248059272766
1776612824.2730188,1.6742683410644532,8.607999572753906,5.224735107421875,-0.24956071376800537,-1.0267436504364014,-0.31469184160232544
1776612824.340514,1.0565029907226564,7.857460327148438,2.7295738220214845,0.5909579992294312,-1.0021034479141235,-0.47975510358810425
1776612824.415425,1.289718017578125,9.016200714111328,5.286406860351563,-0.8195337653160095,-1.1754025220870972,-0.3059205710887909
1776612824.4871776,0.16166381835937502,8.364905090332032,2.268831939697266,0.1350390911102295,-0.4828769862651825,-0.3051743805408478
1776612824.5576305,-0.00029937744140625,8.503367156982423,2.6936485290527346,-0.15398918092250824,-0.5994693636894226,-0.23017023503780365
1776612824.6280866,0.6595285034179688,9.320368194580078,2.5068370056152345,0.07172122597694397,-0.42943891882896423,-0.3450726866722107
1776612824.6994925,0.56282958984375,9.764943695068359,1.992506561279297,0.25853729248046875,-0.30929532647132874,-0.1946970373392105
1776612824.7724237,0.32841705322265624,10.316696319580078,2.7415489196777347,0.16303102672100067,-0.12449948489665985,-0.201411634683609
1776612824.8441908,0.036074981689453126,10.280172271728516,2.417772216796875,0.38316917419433594,-0.04315159469842911,-0.026235593482851982
1776612824.9146569,-0.5164260864257812,9.990225219726563,6.060297546386719,-0.19538439810276031,-0.13162580132484436,0.28297480940818787
1776612824.9863122,-0.29309051513671874,8.100255432128908,2.2218296813964846,0.3510530889034271,0.21874122321605682,-0.14897699654102325
1776612825.0579197,-0.023201751708984378,8.712332611083985,4.669090576171875,-0.0006384705193340778,-0.27391424775123596,0.290296345949173
1776612825.1323526,0.2980302429199219,8.344098358154298,2.226320343017578,0.07512187212705612,0.013256288133561611,-0.07396423071622849
1776612825.2039695,-0.24563919067382814,8.634494476318359,2.494562530517578,-0.022061694413423538,-0.3004447817802429,-0.07481727749109268
1776612825.2738683,-0.41508682250976564,8.874595184326171,1.9651135253906251,0.16035762429237366,-0.29416099190711975,-0.031778138130903244
1776612825.3472,-0.592767333984375,9.622140655517578,1.5792160034179688,0.20361217856407166,-0.3224238455295563,0.013782893307507038
1776612825.4202213,-0.5924679565429688,10.553204498291016,1.644031219482422,0.1100783497095108,-0.1729159951210022,-0.037664636969566345
1776612825.4902089,-0.42002655029296876,10.554851074218751,2.6339227294921876,0.30656155943870544,-0.21694126725196838,-0.16273188591003418
1776612825.564091,0.5194198608398438,10.722352752685547,3.992647247314453,-0.6254326105117798,-0.5194764137268066,-0.16207130253314972
1776612825.6433036,0.7641609191894532,8.271649017333985,3.4444871520996094,0.3030104339122772,-0.5303100943565369,-0.34720224142074585
1776612826.8517056,-0.04296066284179688,9.245523834228516,5.325924682617188,-0.46585822105407715,0.1266745924949646,0.20674720406532288
1776612826.9313972,0.7674540710449219,8.930129699707031,5.669460296630859,-0.7293021082878113,0.4198090136051178,0.1555810570716858
1776612827.0037699,0.9536668395996094,9.608219604492188,6.163133697509766,0.37892571091651917,0.3643166422843933,0.10259711742401123
1776612827.0798936,1.0662327575683594,9.826166381835938,7.1244346618652346,0.5381813645362854,0.17331580817699432,0.04079093784093857
1776612827.1536086,1.1216175842285157,10.906769256591797,5.2546728515625,0.10279547423124313,0.5724310874938965,-0.09774257987737656
1776612827.2235768,-0.28306137084960936,11.545640716552734,5.158423004150391,-1.085300326347351,0.42160698771476746,0.2421281933784485
1776612827.2944028,-0.7469467163085938,9.550290069580079,5.007087707519531,-0.9327985048294067,0.28543972969055176,-0.06150396168231964
1776612827.363716,1.4386582946777344,8.47792007446289,2.405647430419922,-0.3775562345981598,0.6909767389297485,-0.01877499744296074
1776612827.4369938,-0.5786965942382812,7.955356750488281,4.050726470947266,0.1956309676170349,0.1578918695449829,0.16676682233810425
1776612827.5073028,-0.09011260986328125,8.655450897216797,4.838089141845703,-0.0038885450921952724,0.25861164927482605,-0.050952792167663574
1776612827.5854666,0.00718505859375,8.811276855468751,4.603975982666016,0.0710677057504654,0.45418891310691833,-0.06535273790359497
1776612827.6599395,-0.19983444213867188,8.697214050292969,3.9330711364746094,0.018874049186706543,0.04060881584882736,0.03878415375947952
1776612827.7328897,-0.35057098388671876,8.80064895629883,4.714296569824219,-0.16263864934444427,-0.1603592336177826,0.15473006665706635
1776612827.8060577,-0.039517822265625,8.690178680419923,3.9628591918945313,-0.13067267835140228,0.02793564833700657,0.09456072002649307
1776612827.8764966,-0.030686187744140628,8.501720581054688,4.744084625244141,-0.03112424910068512,-0.0496140755712986,-0.02682686224579811
1776612827.943878,-0.24578887939453126,8.401429138183595,5.046156463623047,-0.12385738641023636,0.03032461553812027,-0.0581844225525856
1776612828.0137265,-0.3418890380859375,8.291407928466798,5.266947326660157,-0.03617865592241287,-0.044348932802677155,-0.005415147636085749
1776612828.0867589,-0.2633024597167969,8.290210418701172,5.231770477294922,0.08584444224834442,0.02556661143898964,0.012133948504924774
1776612828.1587598,-0.11271560668945313,8.275540924072265,5.129832458496094,-0.17132610082626343,0.04022510349750519,-0.005819383542984724
1776612828.2322752,-0.2089654541015625,8.39409439086914,4.385131072998047,-0.3217034339904785,0.2675113081932068,0.031555674970149994
1776612828.3064053,-0.42661285400390625,8.312214660644532,5.322631530761719,0.06256768107414246,-0.1702922284603119,0.04284806549549103
1776612828.3795826,-0.19878662109375,8.243657226562501,5.5518049621582035,0.08045122027397156,-0.22852058708667755,-0.025951091200113297
1776612828.4511476,-0.12978012084960938,8.097411346435548,5.688021697998047,0.12870027124881744,-0.13021603226661682,0.00512001384049654
1776612828.5244367,-0.12618759155273437,8.07929901123047,5.2576666259765625,0.1893090456724167,-0.20154590904712677,-0.013170342892408371
1776612828.5990765,-0.037122802734375,8.181237030029298,5.27428207397461,-0.098690465092659,-0.1023692712187767,-0.1011376678943634
1776612828.6714077,0.054935760498046875,8.204588470458985,5.748346252441406,0.01360421720892191,-0.13843657076358795,-0.07820654660463333
1776612828.7462685,0.20642074584960937,8.024213562011719,5.529052276611329,0.08126556873321533,-0.019261205568909645,-0.08201596885919571
1776612828.8201098,-0.089813232421875,8.02226760864258,5.472469940185547,-0.1475065052509308,-0.16294093430042267,0.03802081197500229
1776612828.893971,-0.20731887817382813,7.794591064453125,5.179379425048828,-0.18970133364200592,-0.3465957045555115,0.01312488503754139
1776612828.96697,0.39158569335937504,8.320148162841797,5.650449829101563,0.10283099114894867,-0.22769881784915924,0.03221093490719795
1776612829.0388458,0.42526565551757817,8.19336181640625,5.044659576416016,0.10642610490322113,-0.044978756457567215,0.13997311890125275
1776612829.112016,0.37661682128906254,8.166866912841797,4.815785522460938,-0.038897015154361725,0.09487991780042648,0.1420505940914154
1776612829.18382,0.05523513793945313,7.932903442382813,5.156776428222656,0.10652444511651993,-0.07140694558620453,0.08972598612308502
1776612829.25386,0.7589218139648438,8.085585937500001,5.370531921386719,-0.021591637283563614,-0.040408436208963394,0.016883304342627525
1776612829.336037,0.5403762817382812,7.93754379272461,5.017416229248047,0.09878761321306229,0.013425728306174278,-0.19024549424648285
1776612829.408703,0.8219407653808594,7.863896942138672,5.15213607788086,-0.19285964965820312,-0.15180520713329315,-0.10381659120321274
1776612829.4819996,0.34817596435546877,7.933053131103516,5.451064453125,-0.10895493626594543,-0.19522236287593842,-0.041605062782764435
1776612829.5549967,0.19010467529296876,9.020841064453126,5.322631530761719,0.036807700991630554,0.212187260389328,0.09668095409870148
1776612829.6315515,0.41269180297851565,7.948171691894531,5.329217834472656,-0.19707642495632172,-0.19337168335914612,0.08755803108215332
1776612829.703602,0.5301974487304688,7.730374603271485,5.203329620361329,-0.01413647085428238,0.19331616163253784,-0.010377784259617329
1776612829.7756815,0.6218069458007813,7.804470520019532,5.641767883300782,-0.09110066294670105,0.09994882345199585,-0.04578452929854393
1776612829.8502214,0.4816983032226563,8.0089453125,5.854325866699219,0.06672406196594238,0.24438796937465668,-0.0565338209271431
1776612829.9234073,0.20731887817382813,7.865393829345703,5.702691192626953,-0.1930108368396759,-0.3272983431816101,-0.09546002000570297
1776612829.9964297,0.20028350830078126,8.015980682373048,6.170468444824219,0.023812005296349525,0.05826188623905182,0.008425398729741573
1776612830.0656703,0.40086639404296875,7.850724334716797,5.231620788574219,-0.09687314927577972,0.0428595207631588,-0.04622449725866318
1776612830.1314034,0.30895751953125,7.745044097900391,6.261778564453126,-0.034559160470962524,-0.0010310015641152859,0.04573468863964081
1776612830.2028182,0.5331912231445313,7.923622741699219,5.54012924194336,0.08420878648757935,0.06365129351615906,-0.029602443799376488
1776612830.2709358,0.21749771118164063,7.888296203613281,5.922434234619141,-0.09795015305280685,-0.12108364701271057,-0.02156510204076767
1776612830.3404496,0.28500732421875,7.9062588500976565,5.961802368164062,0.01916734129190445,-0.029368940740823746,0.008657842874526978
1776612830.412372,0.31719039916992187,7.73351806640625,5.690716094970703,-0.08359067887067795,-0.09282410144805908,-0.043463073670864105
1776612830.4834292,0.5885760498046876,7.62140121459961,6.132746887207031,0.03087690845131874,-0.0383581817150116,-0.13053297996520996
1776612830.5535667,0.5893244934082031,7.774832153320313,5.544021148681641,-0.0922825038433075,-0.1867736279964447,-0.029221167787909508
1776612830.627315,0.24519012451171876,7.828420715332031,6.424041137695313,0.010699805803596973,-0.36882394552230835,-0.22114895284175873
1776612830.7003276,0.25536895751953126,7.665409698486329,5.548811187744141,-0.054808393120765686,-0.0485428161919117,-0.18773819506168365
1776612830.7747116,0.14864089965820312,7.747738494873047,5.867199096679688,0.04054363816976547,-0.15184921026229858,-0.24797898530960083
1776612830.848675,-0.05254074096679688,7.876620483398438,5.917494506835938,-0.16084635257720947,-0.3048655390739441,-0.1293402761220932
1776612830.922073,0.35476226806640626,7.998467102050782,5.6645205688476565,0.014118044637143612,-0.11208266019821167,-0.1290542483329773
1776612830.9922137,0.26809249877929686,7.9924795532226565,5.853427734375,-0.13450689613819122,-0.2297581434249878,-0.06564685702323914
1776612831.0656073,0.16854949951171877,8.316106567382812,6.0219772338867195,0.048482101410627365,-0.1815023124217987,-0.10802646726369858
1776612831.1396737,0.09610015869140626,7.974217529296875,5.640270996093751,-0.08064286410808563,-0.3487561047077179,0.02395777404308319
1776612831.2123063,0.07035369873046875,7.790399780273438,5.581293640136719,0.11358116567134857,0.05556260794401169,-0.05254962667822838
1776612831.2812774,0.44158172607421875,7.954159240722657,5.899232482910157,-0.1872033029794693,-0.22202478349208832,0.16939689218997955
1776612831.3534455,0.7860154724121095,7.456743621826172,5.904770965576172,-0.013108951970934868,-0.17518460750579834,0.005154243670403957
1776612831.4259765,1.0988648986816407,7.263196105957031,5.93770248413086,0.002917250618338585,-0.03678901121020317,-0.13331471383571625
1776612831.4973574,0.767603759765625,7.696844329833985,6.2562400817871096,-0.09333373606204987,-0.1673484444618225,-0.10431060940027237
1776612831.5687628,0.6104306030273438,7.317982177734375,6.390810241699219,-0.020314399152994156,-0.11252911388874054,-0.08936757594347
1776612831.6415365,0.6541397094726563,7.390730895996094,6.237528991699219,-0.0011826693080365658,-0.05979492887854576,-0.0665278285741806
1776612831.7114892,0.6319857788085937,7.259453887939453,5.912554779052734,-0.015193728730082512,-0.1008906364440918,-0.07680594176054001
1776612831.784458,0.6084846496582031,7.461084594726563,6.050867156982422,-0.028764385730028152,0.02647581323981285,-0.08372913300991058
1776612831.8766766,0.6078858947753907,7.483986968994141,6.1891795349121095,-0.0952160432934761,-0.04238373041152954,-0.018717067316174507
1776612831.9510205,0.6878196716308594,7.515720977783204,6.315217437744141,-0.09530086070299149,-0.07941659539937973,0.01306028664112091
1776612832.0225487,0.5638774108886719,7.425159301757813,6.23707992553711,-0.1541053056716919,-0.029449595138430595,0.04535667225718498
1776612832.0965571,0.4794529724121094,7.22098388671875,6.692582702636719,0.009628011845052242,-0.038235537707805634,-0.11211710423231125
1776612832.17048,0.552052001953125,7.494914245605469,5.994434509277344,-0.06674153357744217,0.04613906517624855,-0.054381128400564194
1776612832.2480786,0.40670425415039063,7.473508758544923,6.411018218994141,0.009513145312666893,-0.005737701430916786,-0.08872763067483902
1776612832.3161767,0.4793032836914063,7.55434066772461,6.130202178955078,0.014398431405425072,0.11262030154466629,-0.007090155966579914
1776612832.3879008,0.5204676818847657,7.452702026367188,6.4833178710937505,-0.03210676461458206,-0.05917583778500557,0.034472398459911346
1776612832.4618366,0.6737489318847657,7.426207122802735,6.375242614746094,0.03083942085504532,0.02308838441967964,0.052381210029125214
1776612832.5341969,0.6138734436035157,7.362290039062501,6.3265937805175785,0.077067069709301,0.027439773082733154,0.012788061052560806
1776612832.607984,0.5170248413085938,7.550897827148438,5.968388671875,0.10273750126361847,0.19376234710216522,0.00351519463583827
1776612832.6812673,-0.033679962158203125,7.843389587402344,6.327342224121094,0.203908771276474,0.11323962360620499,-0.024311119690537453
1776612832.754636,0.3445834350585938,7.430398406982422,5.411846008300781,0.28591975569725037,0.33100709319114685,0.011182159185409546
1776612832.829367,0.36284545898437504,7.638914794921876,6.066135406494141,0.17695380747318268,0.15383075177669525,-0.024585505947470665
1776612832.9001634,-0.0425115966796875,7.557184753417969,6.012696533203125,0.031733229756355286,-0.08835870772600174,-0.13324594497680664
1776612832.968803,0.858464813232422,7.5892181396484375,5.9938357543945315,0.194480299949646,0.07506278157234192,0.036132536828517914
1776612833.038797,0.07813751220703126,8.026758270263672,5.775739288330079,0.10749337822198868,0.5674893856048584,0.06165456026792526
1776612833.1137059,-0.09265731811523438,7.903564453125,6.025120697021484,0.4446870684623718,-0.12172527611255646,0.1098727136850357
1776612833.1910677,0.04700225830078125,7.742050323486328,5.291196899414063,0.2459309697151184,0.3278004825115204,-0.010834204964339733
1776612833.263416,-0.011975097656250001,8.465346221923829,6.191424865722657,0.2430783063173294,-0.5271244645118713,0.09799478203058243
1776612833.334566,0.37901184082031253,7.646249542236329,4.459077301025391,-0.02067064680159092,-0.6013990044593811,0.11121506989002228
1776612833.4033897,0.33679962158203125,7.828420715332031,4.690346374511719,-0.21955606341362,0.04857539013028145,0.15113338828086853
1776612833.4792917,0.6529421997070313,7.942034454345704,5.649252319335938,-0.42053136229515076,-0.32449138164520264,0.05622393637895584
1776612833.550821,0.8628057861328126,8.008795623779298,6.218668212890625,-0.016259074211120605,-0.5249406695365906,0.10380727797746658
1776612833.6269474,0.9666897583007813,7.946225738525391,5.727240142822266,0.3693963289260864,-0.5369183421134949,0.23898842930793762
1776612833.7002203,1.7083973693847656,8.13393539428711,5.351671142578125,0.3936936557292938,-0.4999485909938812,0.13491448760032654
1776612833.774083,1.8110838317871094,8.213270416259766,4.862638092041016,0.04589306563138962,-0.19346937537193298,0.06513313204050064
1776612833.847225,1.9969972229003907,8.234675903320312,4.871170349121094,0.3711698353290558,-0.41190648078918457,0.08754801750183105
1776612833.9201193,2.0254380798339846,8.240064697265625,4.708608398437501,0.1789526343345642,-0.23052702844142914,0.04551130533218384
1776612833.9903052,2.1378543090820314,8.409662017822265,4.534670104980469,0.08624965697526932,-0.1375133991241455,0.04565802216529846
1776612834.0634286,1.8604811096191407,8.439450073242188,4.53377197265625,0.33533698320388794,-0.4004506468772888,0.09101728349924088
1776612835.2515743,2.5893154907226563,8.564290466308595,3.680097198486328,-0.18892845511436462,0.34343740344047546,-0.020857514813542366
1776612835.3372202,2.5893154907226563,8.564290466308595,3.680097198486328,-0.18892845511436462,0.34343740344047546,-0.020857514813542366
1776612835.4070706,2.5893154907226563,8.564290466308595,3.680097198486328,-0.18892845511436462,0.34343740344047546,-0.020857514813542366
1776612835.4818022,2.5893154907226563,8.564290466308595,3.680097198486328,-0.18892845511436462,0.34343740344047546,-0.020857514813542366
1776612835.5537813,2.5893154907226563,8.564290466308595,3.680097198486328,-0.18892845511436462,0.34343740344047546,-0.020857514813542366
1776612835.629147,2.5893154907226563,8.564290466308595,3.680097198486328,-0.18892845511436462,0.34343740344047546,-0.020857514813542366
1776612835.6982672,2.5893154907226563,8.564290466308595,3.680097198486328,-0.18892845511436462,0.34343740344047546,-0.020857514813542366
1776612835.7766938,2.5893154907226563,8.564290466308595,3.680097198486328,-0.18892845511436462,0.34343740344047546,-0.020857514813542366
1776612835.8496952,2.5893154907226563,8.564290466308595,3.680097198486328,-0.18892845511436462,0.34343740344047546,-0.020857514813542366
1776612835.9236991,2.5893154907226563,8.564290466308595,3.680097198486328,-0.18892845511436462,0.34343740344047546,-0.020857514813542366
1776612836.0014758,2.5893154907226563,8.564290466308595,3.680097198486328,-0.18892845511436462,0.34343740344047546,-0.020857514813542366
1776612836.076836,2.5893154907226563,8.564290466308595,3.680097198486328,-0.18892845511436462,0.34343740344047546,-0.020857514813542366
1776612836.1501672,2.5893154907226563,8.564290466308595,3.680097198486328,-0.18892845511436462,0.34343740344047546,-0.020857514813542366
1776612836.2252693,2.5893154907226563,8.564290466308595,3.680097198486328,-0.18892845511436462,0.34343740344047546,-0.020857514813542366
1776612836.2996633,2.5893154907226563,8.564290466308595,3.680097198486328,-0.18892845511436462,0.34343740344047546,-0.020857514813542366
1776612836.3720682,2.5893154907226563,8.564290466308595,3.680097198486328,-0.18892845511436462,0.34343740344047546,-0.020857514813542366
1776612836.445681,2.5893154907226563,8.564290466308595,3.680097198486328,-0.18892845511436462,0.34343740344047546,-0.020857514813542366
1776612836.5187144,2.5893154907226563,8.564290466308595,3.680097198486328,-0.18892845511436462,0.34343740344047546,-0.020857514813542366
1776612836.588805,2.5893154907226563,8.564290466308595,3.680097198486328,-0.18892845511436462,0.34343740344047546,-0.020857514813542366
1776612836.657267,2.5893154907226563,8.564290466308595,3.680097198486328,-0.18892845511436462,0.34343740344047546,-0.020857514813542366
1776612836.7289052,2.5893154907226563,8.564290466308595,3.680097198486328,-0.18892845511436462,0.34343740344047546,-0.020857514813542366
1776612836.800274,2.5893154907226563,8.564290466308595,3.680097198486328,-0.18892845511436462,0.34343740344047546,-0.020857514813542366
1776612836.8733716,2.5893154907226563,8.564290466308595,3.680097198486328,-0.18892845511436462,0.34343740344047546,-0.020857514813542366
1776612836.9521005,2.5893154907226563,8.564290466308595,3.680097198486328,-0.18892845511436462,0.34343740344047546,-0.020857514813542366
1776612837.0238526,2.5893154907226563,8.564290466308595,3.680097198486328,-0.18892845511436462,0.34343740344047546,-0.020857514813542366
1776612837.0933857,2.5893154907226563,8.564290466308595,3.680097198486328,-0.18892845511436462,0.34343740344047546,-0.020857514813542366
1776612837.16503,2.5893154907226563,8.564290466308595,3.680097198486328,-0.18892845511436462,0.34343740344047546,-0.020857514813542366
1776612837.2388835,2.5893154907226563,8.564290466308595,3.680097198486328,-0.18892845511436462,0.34343740344047546,-0.020857514813542366
1776612837.3113554,2.5893154907226563,8.564290466308595,3.680097198486328,-0.18892845511436462,0.34343740344047546,-0.020857514813542366
1776612837.3820353,2.5893154907226563,8.564290466308595,3.680097198486328,-0.18892845511436462,0.34343740344047546,-0.020857514813542366
1776612837.4516268,2.5893154907226563,8.564290466308595,3.680097198486328,-0.18892845511436462,0.34343740344047546,-0.020857514813542366
1776612837.5244188,2.5893154907226563,8.564290466308595,3.680097198486328,-0.18892845511436462,0.34343740344047546,-0.020857514813542366
1776612837.59471,2.5893154907226563,8.564290466308595,3.680097198486328,-0.18892845511436462,0.34343740344047546,-0.020857514813542366
1776612837.6658573,2.5893154907226563,8.564290466308595,3.680097198486328,-0.18892845511436462,0.34343740344047546,-0.020857514813542366
1776612837.73974,2.5893154907226563,8.564290466308595,3.680097198486328,-0.18892845511436462,0.34343740344047546,-0.020857514813542366
1776612837.8097148,2.5893154907226563,8.564290466308595,3.680097198486328,-0.18892845511436462,0.34343740344047546,-0.020857514813542366
1776612837.8802528,2.5893154907226563,8.564290466308595,3.680097198486328,-0.18892845511436462,0.34343740344047546,-0.020857514813542366
1776612837.9521425,2.5893154907226563,8.564290466308595,3.680097198486328,-0.18892845511436462,0.34343740344047546,-0.020857514813542366
1776612838.0240119,2.5893154907226563,8.564290466308595,3.680097198486328,-0.18892845511436462,0.34343740344047546,-0.020857514813542366
1776612838.096136,2.5893154907226563,8.564290466308595,3.680097198486328,-0.18892845511436462,0.34343740344047546,-0.020857514813542366
1776612838.1663635,2.5893154907226563,8.564290466308595,3.680097198486328,-0.18892845511436462,0.34343740344047546,-0.020857514813542366
1776612838.2414603,2.5893154907226563,8.564290466308595,3.680097198486328,-0.18892845511436462,0.34343740344047546,-0.020857514813542366
1776612838.3117702,2.5893154907226563,8.564290466308595,3.680097198486328,-0.18892845511436462,0.34343740344047546,-0.020857514813542366
1776612838.383088,2.5893154907226563,8.564290466308595,3.680097198486328,-0.18892845511436462,0.34343740344047546,-0.020857514813542366
