timestamp,accX,accY,accZ,gyroX,gyroY,gyroZ
1776614087.2539666,-0.2165995788574219,-7.874375152587891,2.3261627197265624,0.05719190090894699,-0.016284676268696785,0.009770415723323822
1776614087.3239715,-0.7328759765625,-9.752818908691406,2.1412971496582034,-0.24264606833457947,-0.08847616612911224,0.20207051932811737
1776614087.3955696,-0.7691006469726563,-9.726473693847657,2.152823181152344,-0.1688980609178543,0.045640312135219574,-0.058944039046764374
1776614087.4711726,-0.956660614013672,-9.647887115478516,2.003134460449219,-0.18508867919445038,0.019670534878969193,-0.1155177652835846
1776614087.5495977,-0.2939886474609375,-9.738299102783204,1.9851718139648438,-0.2891033887863159,-0.11936153471469879,0.09975843131542206
1776614087.627091,-0.6134243774414063,-9.435628509521484,0.2740800476074219,-0.13299044966697693,-0.2511565089225769,0.09154339879751205
1776614087.6993158,-0.4448748779296875,-9.761949920654297,1.9115249633789064,-0.14740458130836487,-0.2074415385723114,-0.14375223219394684
1776614087.7706063,-0.4836442565917969,-9.840386810302736,1.57352783203125,-0.00297346618026495,-0.1642732471227646,0.0907248854637146
1776614087.839454,-0.5204676818847657,-9.764195251464844,1.4627581787109376,-0.00756935216486454,-0.3284613788127899,0.08376863598823547
1776614087.908389,0.5542973327636719,-9.757010192871094,1.4015354919433594,-0.015386562794446945,-0.4843482971191406,0.04291598126292229
1776614087.9775732,-0.06825805664062501,-9.402696990966797,1.162781982421875,0.08436331897974014,-0.6010649800300598,0.009724082425236702
1776614088.044011,-0.7988887023925781,-9.912087707519532,1.2720547485351563,0.0004228372126817703,-0.7335922122001648,-0.12287019938230515
1776614088.1123602,-0.9901908874511719,-9.753417663574218,2.1806652832031252,-0.2101231962442398,-0.4867800772190094,0.05334103852510452
1776614088.1830206,-1.1021580505371094,-9.45793212890625,1.3736933898925783,-0.067947618663311,-0.7173211574554443,0.145762100815773
1776614088.2518604,-1.1415261840820312,-9.802665252685548,2.0682490539550784,-0.11866170912981033,-0.6542620658874512,0.2420276403427124
1776614088.32156,-1.5816110229492188,-9.593999176025392,1.7940193176269532,-0.07574711740016937,-0.7119062542915344,0.08939321339130402
1776614088.392545,-0.7554789733886719,-9.586514739990236,1.6868421936035156,-0.03879130259156227,-0.6117319464683533,0.19027741253376007
1776614088.4652143,-1.4892530822753907,-9.514813842773439,1.7139358520507812,0.0519787073135376,-0.4499466121196747,0.16456584632396698
1776614088.538397,-1.5063175964355469,-10.037077789306641,1.5130535888671877,0.041626013815402985,-0.4773743450641632,0.06622068583965302
1776614088.6081867,-0.7707472229003907,-9.459878082275392,1.7193246459960938,0.12111246585845947,-0.2677631378173828,0.16372637450695038
1776614088.6818755,-0.8464897155761719,-9.637857971191407,2.0110679626464845,0.07731764018535614,-0.17661449313163757,0.01789894327521324
1776614088.754169,-0.7614665222167969,-9.826166381835938,1.3693524169921876,0.02922065369784832,-0.05720870941877365,0.046919044107198715
1776614088.823237,-0.7072792053222656,-9.669741668701173,1.7009129333496094,-0.07681014388799667,-0.15731826424598694,-0.007696954533457756
1776614088.8956895,-0.4237687683105469,-9.941726074218751,1.2618759155273438,-0.03189774602651596,-0.33684247732162476,0.08148592710494995
1776614088.9663434,-0.8990304565429688,-9.279802551269531,1.6874409484863282,-0.197348490357399,-0.6782048344612122,-0.0020694127306342125
1776614089.0369751,-0.39113662719726566,-10.213860168457032,1.4882052612304688,-0.19020593166351318,-0.9382131099700928,0.035821475088596344
1776614089.1100535,-0.22363494873046877,-9.021290130615235,1.8127304077148438,-0.21950283646583557,-1.0507785081863403,0.003237968310713768
1776614089.1819856,-0.1347198486328125,-9.896969146728516,1.4340179443359375,-0.1609164923429489,-1.1763590574264526,0.029129236936569214
1776614089.2510374,0.03323089599609375,-9.698332214355469,1.24541015625,-0.18168605864048004,-1.1659811735153198,0.052511684596538544
1776614089.3207216,0.5728587341308594,-9.598040771484376,1.1317964172363282,-0.10131821036338806,-1.2106621265411377,0.0797092467546463
1776614089.3891141,0.2721340942382813,-9.710457000732422,1.3033396911621093,-0.20385713875293732,-1.159313678741455,0.13136416673660278
1776614089.4601362,-0.5303471374511719,-9.736802215576173,1.5808625793457032,-0.1687517762184143,-1.2248916625976562,0.10853563249111176
1776614089.5306957,-0.2736309814453125,-9.662257232666017,1.1527528381347656,-0.11410077661275864,-1.051256537437439,0.15161465108394623
1776614089.6004074,-0.15462844848632815,-9.373507690429689,1.676363983154297,-0.017075467854738235,-1.1084924936294556,0.26774415373802185
1776614089.6709533,-0.49756530761718754,-11.400891723632814,0.03936813354492188,-0.0023108292371034622,-1.088923454284668,0.2320498824119568
1776614089.7423785,-0.9671388244628907,-9.77452377319336,0.4493655395507813,-0.04556823521852493,-1.1116783618927002,0.2776930630207062
1776614089.8165627,-0.6388714599609375,-9.506580963134766,0.04026626586914063,-0.08904819190502167,-0.9606655836105347,0.416604220867157
1776614089.886696,-1.5823594665527345,-9.525591430664063,0.7012916564941407,0.03289739042520523,-0.8766538500785828,0.21685032546520233
1776614089.9579768,-1.4449452209472657,-9.53023178100586,1.5501763916015625,0.07421372830867767,-0.5688501596450806,0.17182780802249908
1776614090.0332198,-1.7006135559082032,-9.287137298583986,1.6013699340820313,0.04884934425354004,-0.4153991639614105,0.13319022953510284
1776614090.1060116,-1.597328338623047,-9.21259231567383,1.6265176391601563,0.056074656546115875,-0.14326705038547516,0.14114287495613098
1776614090.1749895,-1.9561322021484375,-9.2399853515625,2.0969892883300782,-0.001647974830120802,-0.049120593816041946,0.03691474720835686
1776614090.2406375,-2.508333892822266,-9.381890258789063,1.4938934326171875,0.13517531752586365,0.23642055690288544,-0.06470037251710892
1776614090.3094199,-2.2531146240234374,-9.675729217529298,1.7158818054199219,0.01592908799648285,0.5338872075080872,-0.006645579356700182
1776614090.3802657,-2.651436309814453,-11.071875915527345,1.6663348388671877,0.34187349677085876,0.6093530654907227,-0.1636611372232437
1776614090.4503036,-0.5026547241210938,-11.247311096191407,0.8328680419921876,-0.2402118742465973,0.6730650067329407,0.12174060940742493
1776614090.5176907,-0.4535568237304688,-8.563691711425781,0.4053570556640625,-0.029544295743107796,0.7027102112770081,-0.1077105700969696
1776614090.5870779,0.18007553100585938,-9.643396453857422,-0.1981878662109375,0.06332002580165863,0.6646673679351807,-0.20267179608345032
1776614090.6592824,0.42885818481445315,-9.949060821533203,1.217717742919922,-0.08001625537872314,0.6396241784095764,-0.2342863380908966
1776614090.7319455,0.10672805786132813,-8.846453704833985,0.861009521484375,-0.11635711789131165,0.4709862470626831,-0.12411954253911972
1776614090.8237212,0.041613464355468754,-10.045610046386718,1.3537847900390625,-0.12522755563259125,0.5400164723396301,-0.10871683061122894
1776614090.9002063,-0.4481680297851563,-9.366172943115235,1.4694941711425782,0.04256857931613922,0.35227230191230774,0.039739940315485
1776614090.973172,-0.18037490844726564,-9.693392486572266,1.3382171630859376,0.03682820498943329,0.09197361022233963,0.11957971006631851
1776614091.04897,-0.7854167175292969,-11.323352966308594,0.8798703002929688,0.08816010504961014,-0.02778714708983898,0.019823821261525154
1776614091.1214762,-0.3266207885742188,-10.575807495117187,0.641865234375,-0.18317914009094238,0.23122459650039673,0.16057124733924866
1776614091.1969357,-0.6599775695800781,-9.07517807006836,-0.31329849243164065,-0.018514446914196014,0.033484071493148804,0.13443557918071747
1776614091.268865,-1.4935940551757814,-8.978628845214844,-0.4626878356933594,-0.014947021380066872,0.21814005076885223,0.01980050839483738
1776614091.341482,-2.002386016845703,-11.12142288208008,1.2252021789550782,0.07120554149150848,0.2458532303571701,-0.1566346138715744
1776614091.4157052,-1.4673985290527345,-8.242908782958985,1.1115884399414062,0.030967112630605698,0.17261791229248047,0.13774274289608002
1776614091.488297,-1.2576846313476564,-9.663305053710937,0.45759841918945315,-0.06912343949079514,0.4737406373023987,0.002648675348609686
1776614091.5617666,-2.23934326171875,-9.055419158935548,0.7571255493164063,-0.08139438927173615,0.5220329761505127,-0.10192396491765976
1776614091.6371148,-1.8095869445800783,-9.399104461669923,1.0359956359863283,0.0032618865370750427,0.449267715215683,-0.04830845817923546
1776614091.7064853,-0.8529263305664063,-10.901081085205078,-1.2284953308105468,0.48385074734687805,0.4066680371761322,-0.3041030168533325
1776614091.7806985,-1.4181509399414063,-11.948003997802735,0.49367340087890627,-0.39822277426719666,0.5295044183731079,-0.08689316362142563
1776614091.8514624,-0.8660989379882813,-7.250472564697266,-0.7155120849609375,-0.18173959851264954,0.20873503386974335,0.020301301032304764
1776614091.9262078,0.03397933959960937,-10.641371154785157,0.13965957641601562,-0.13695359230041504,-0.0244444552809,-0.06873437762260437
1776614092.0017326,0.21570144653320314,-8.014334106445313,0.2734812927246094,-0.02057219296693802,0.10814373940229416,-0.12204532325267792
1776614092.081022,0.2532733154296875,-9.179211730957032,1.041683807373047,0.10741452127695084,0.26366353034973145,-0.20282679796218872
1776614092.1541774,-0.5049000549316407,-11.537856903076172,0.5429209899902344,-0.06258571892976761,0.6615478992462158,-0.24509699642658234
1776614092.2312808,-1.1141331481933594,-7.7585160827636726,-2.1980291748046876,-0.8482492566108704,0.5929752588272095,-0.20866753160953522
1776614092.299302,-3.6018099975585938,-4.575235748291016,0.5634283447265626,-1.4499486684799194,0.28742527961730957,0.8220674395561218
1776614092.3687065,-2.2278172302246095,-9.645492095947267,-0.7854167175292969,-1.9513291120529175,0.4987676441669464,0.5301947593688965
1776614092.4416423,-1.7905764770507813,-10.400671691894532,-1.3521382141113283,-2.1741483211517334,0.8453314304351807,0.32595086097717285
1776614092.5154383,-2.4278013610839846,-8.060887298583985,-2.9220735168457033,-2.5408029556274414,0.4525356590747833,0.9998223781585693
1776614092.5898032,-0.011376342773437501,-9.434580688476563,-6.430477752685547,-3.087531805038452,-0.20917916297912598,1.0244888067245483
1776614092.6657224,1.8107844543457032,-3.8440063476562503,-4.24202865600586,-2.7923107147216797,-0.24705101549625397,0.6003416180610657
1776614092.7386386,-0.5243595886230469,0.12184661865234375,-4.159849548339844,-3.277653217315674,-0.6250613331794739,0.5884319543838501
1776614092.812713,-7.140451354980469,-4.363276519775391,-5.024152221679688,-3.0577776432037354,-0.978438675403595,0.20612213015556335
1776614092.8873723,-2.162403259277344,-5.657634887695313,-19.104322357177736,-2.6535134315490723,-1.4722840785980225,-1.051963210105896
1776614092.9618545,-5.644462280273438,-0.27542724609375,-6.649472351074219,-1.3709920644760132,-1.4301832914352417,-1.0475904941558838
1776614093.0352473,1.9441571044921877,14.204561462402344,13.471386108398438,2.6759774684906006,0.151847705245018,-0.753455400466919
1776614093.107051,-6.3671594238281255,1.1500584411621095,-8.149503021240236,2.0650510787963867,0.20617230236530304,-1.811432123184204
1776614093.1783187,-15.181729431152345,-11.727063446044923,-5.9655445861816405,0.13330942392349243,-0.17669858038425446,0.7718442678451538
1776614093.249562,4.815037078857422,7.037315826416016,-3.587439880371094,-1.2498345375061035,1.6039422750473022,-0.002556729596108198
1776614093.3233204,-0.5797444152832032,-3.2332763671875,-7.624844055175782,-1.2726384401321411,1.482835054397583,0.7975305914878845
1776614093.4046135,1.0918295288085937,-0.09565109252929688,-9.435927886962892,-0.989538311958313,2.003288507461548,0.7657657861709595
1776614093.478751,-0.18815872192382813,0.006436614990234376,-12.027339019775392,-1.5285601615905762,0.8983197212219238,0.9882535338401794
1776614093.5520785,4.2679248046875005,3.5452276611328126,-17.597256317138672,-2.812194347381592,-0.4523371756076813,0.7591606974601746
1776614093.6253269,3.065475311279297,-2.6830206298828125,-13.376034393310547,-1.1866955757141113,0.030854947865009308,-0.6774110794067383
1776614093.7051013,-3.466341705322266,-2.4533981323242187,-5.363646240234376,-1.343387246131897,-1.4621500968933105,0.42224571108818054
1776614093.7810476,2.153272247314453,13.241314544677735,-6.246510314941407,-0.4215719401836395,0.6403653025627136,-0.451711505651474
1776614093.8544633,-0.7511380004882813,4.791535949707032,-8.055199127197266,-0.812836766242981,0.9068763852119446,0.6421706080436707
1776614093.9249213,-0.5074447631835938,3.7726048278808597,-7.743846588134766,-0.420639306306839,0.41170012950897217,0.2020772248506546
1776614093.9992957,0.08038284301757813,3.880829772949219,-9.362730102539063,-0.45389118790626526,0.6124075055122375,0.31378626823425293
1776614094.072397,0.23800506591796877,4.3578877258300786,-10.492281188964844,0.0019124411046504974,0.2752561867237091,0.2737681567668915
1776614094.147458,0.7650590515136719,4.396208038330078,-8.948541412353515,0.33775794506073,0.06903096288442612,0.17359265685081482
1776614094.2226899,0.6001020812988281,4.634662170410157,-8.94734390258789,0.2648659646511078,-0.1970534771680832,0.16317343711853027
1776614094.2907224,1.5021263122558595,3.1126272583007815,-9.039851531982423,0.2497221827507019,-0.0112565653398633,0.12892408668994904
1776614094.3593168,0.6301895141601562,3.9676492309570315,-9.874665527343751,0.2107563614845276,0.07216611504554749,0.022120129317045212
1776614094.4293852,-0.00868194580078125,2.365979919433594,-9.868677978515626,0.08589645475149155,0.012769406661391258,-0.04133020341396332
1776614095.639288,-1.1970606994628907,-4.229754180908204,-8.228688354492188,1.2413225173950195,0.05453730747103691,-0.04824238643050194
1776614095.7066858,-1.1120375061035157,-5.067711639404297,-8.894952850341797,1.0650317668914795,0.13973340392112732,-0.04955386370420456
1776614095.777132,0.101788330078125,-5.705834655761719,-7.680677947998047,0.8214268684387207,0.13536515831947327,0.14613337814807892
1776614095.8490698,-1.0089019775390626,-5.998326416015625,-7.966882781982422,1.214953064918518,0.09607603400945663,-0.08613269031047821
1776614095.9202845,-0.6613247680664063,-5.925278320312501,-6.549779663085938,0.8226998448371887,-0.020802926272153854,0.14961811900138855
1776614095.9929986,-0.4052073669433594,-6.029611358642579,-6.993756408691406,0.7311503887176514,-0.0721755400300026,-0.052687712013721466
1776614096.0662792,-0.3387455749511719,-7.716154174804688,-6.698270874023438,0.9466999769210815,0.0026681539602577686,0.13538633286952972
1776614096.1381395,-0.6445596313476563,-7.570956115722657,-5.577551422119141,0.669363260269165,0.10267756879329681,0.04255526512861252
1776614096.2079134,-1.3139675903320314,-7.596403198242188,-5.341192932128907,0.7414129972457886,-0.24977833032608032,0.14245720207691193
1776614096.2787776,-0.61072998046875,-7.934250640869141,-5.511688385009766,0.7014293074607849,-0.22310639917850494,0.2787584662437439
1776614096.3524754,-0.21794677734375,-7.9203295898437505,-4.8542555236816405,0.5468127727508545,-0.0751740112900734,0.3893970847129822
1776614096.4270096,-1.549427947998047,-8.900790710449218,-5.231321411132813,0.9033422470092773,0.39336681365966797,0.45743459463119507
1776614096.4990375,-1.384021911621094,-7.786358184814453,-4.621040496826172,0.6971524953842163,0.2430586963891983,0.36200007796287537
1776614096.5730007,-2.798131256103516,-9.335037689208985,-4.6710365295410154,0.38977742195129395,0.15971536934375763,0.13951724767684937
1776614096.644357,-3.331322479248047,-7.6667568969726565,-3.9541772460937503,0.4812789559364319,-0.4853912889957428,0.11390414088964462
1776614096.7167587,-2.5468038940429687,-8.173752593994141,-3.3522789001464846,0.5572078824043274,-0.7188079357147217,0.26564449071884155
1776614096.7837284,-3.340902557373047,-8.845705261230469,-2.3436763000488283,0.39586761593818665,-0.7397599816322327,0.12820638716220856
1776614096.8549647,-3.4612522888183594,-8.927884368896486,-1.6956738281250001,0.10649971663951874,-0.6443420648574829,-0.04711989313364029
1776614096.9281404,-2.3532563781738283,-9.020242309570312,-2.4138803100585937,0.20105665922164917,-0.45186561346054077,0.009695503860712051
1776614097.0009346,-2.6300308227539064,-9.060957641601563,-1.6944763183593752,0.15845736861228943,-0.266692191362381,-0.08869222551584244
1776614097.0720842,-2.8876451110839847,-9.017847290039063,-1.409319305419922,0.258727490901947,-0.04839591309428215,-0.09520706534385681
1776614097.1467633,-3.361260223388672,-8.570577392578125,-1.3862672424316407,0.004561338573694229,0.01545785740017891,-0.11765959113836288
1776614097.2160969,-3.531007232666016,-9.357940063476564,-1.277742919921875,0.29538580775260925,-0.07335643470287323,-0.10608543455600739
1776614097.289556,-2.7071205139160157,-8.594826965332032,-1.767374725341797,0.07236901670694351,0.16778239607810974,-0.16240642964839935
1776614097.3677769,-2.7415489196777347,-10.020462341308594,-2.315684509277344,0.14589688181877136,0.1599860042333603,-0.2757509648799896
1776614097.4391096,-1.4181509399414063,-10.167606353759766,-1.5947836303710938,0.48293164372444153,0.07913213968276978,-0.30481430888175964
1776614097.5108118,-0.6550378417968751,-11.511062622070312,-1.8086888122558595,0.5948370695114136,0.18671609461307526,-0.17484840750694275
1776614097.584122,-1.0044113159179688,-13.000166015625,-1.8528469848632814,0.022594302892684937,0.6434623003005981,-0.17825272679328918
1776614097.6570532,-2.23455322265625,-11.840527496337891,-0.9877958679199219,0.11974430084228516,0.669076681137085,-0.10806701332330704
1776614097.7269156,-0.6026467895507813,-11.887679443359376,-1.317410430908203,0.1773429661989212,0.7621110081672668,-0.01633245125412941
1776614097.8021579,-1.0831475830078126,-10.810220031738282,-1.1141331481933594,0.29185622930526733,0.8478871583938599,-0.14928196370601654
1776614097.878037,-1.0734178161621095,-9.495204620361328,-1.3880635070800782,0.305671364068985,0.9812601804733276,-0.034879282116889954
1776614097.9532008,0.2710862731933594,-8.13737823486328,-2.029329986572266,-0.06153792515397072,1.052030086517334,-0.024999264627695084
1776614098.0264044,-1.4721885681152345,-7.980803833007813,-1.8748512268066406,-0.6174513697624207,0.6481215357780457,-0.11790221184492111
1776614098.0988438,0.7806266784667969,-8.84435806274414,-2.9105474853515627,-0.051724404096603394,0.9087384343147278,0.19257886707782745
1776614098.1698349,-0.39697448730468754,-7.499853973388673,-2.545007629394531,1.0794836282730103,0.661735475063324,0.016421128064393997
1776614098.2378805,0.12109817504882812,-6.999743957519532,-1.6179853820800782,1.3219265937805176,0.8248565793037415,0.18688923120498657
1776614098.306607,-1.1470646667480469,-8.51908447265625,-0.28755203247070316,1.0106192827224731,0.8849065899848938,0.07423785328865051
1776614098.3775327,-2.096540222167969,-10.667117614746095,0.7800279235839844,0.852251410484314,0.7354053258895874,0.02758980169892311
1776614098.4505847,-1.3810281372070312,-9.449699249267578,1.0330018615722656,0.8213574886322021,0.8133812546730042,-0.01773955672979355
1776614099.5626652,-1.4721885681152345,-9.367520141601563,2.657274169921875,0.04315519705414772,0.7342230081558228,-0.34379589557647705
1776614099.7111373,-0.7441026306152344,-9.579329681396485,2.8039691162109377,-0.029081713408231735,0.6870917081832886,-0.4164825975894928
1776614099.8309505,-0.7491920471191407,-9.191785583496094,2.7988796997070313,0.09949992597103119,0.6912927031517029,-0.2983488440513611
1776614099.9056032,-0.20597167968750002,-9.134305114746095,2.8723768615722656,0.03666554018855095,0.5704799294471741,-0.19729971885681152
1776614099.9807265,-0.20178039550781252,-9.422904968261719,2.7030789184570314,0.04018644616007805,0.5659963488578796,-0.19814804196357727
1776614100.0552921,-0.20178039550781252,-9.422904968261719,2.7030789184570314,0.04018644616007805,0.5659963488578796,-0.19814804196357727
1776614100.1252918,-0.20178039550781252,-9.422904968261719,2.7030789184570314,0.04018644616007805,0.5659963488578796,-0.19814804196357727
1776614100.1990836,-0.20178039550781252,-9.422904968261719,2.7030789184570314,0.04018644616007805,0.5659963488578796,-0.19814804196357727
1776614100.27576,-0.20178039550781252,-9.422904968261719,2.7030789184570314,0.04018644616007805,0.5659963488578796,-0.19814804196357727
1776614100.3500319,-0.20178039550781252,-9.422904968261719,2.7030789184570314,0.04018644616007805,0.5659963488578796,-0.19814804196357727
1776614100.423941,-0.20178039550781252,-9.422904968261719,2.7030789184570314,0.04018644616007805,0.5659963488578796,-0.19814804196357727
1776614100.4996803,-0.20178039550781252,-9.422904968261719,2.7030789184570314,0.04018644616007805,0.5659963488578796,-0.19814804196357727
1776614100.5770814,-0.20178039550781252,-9.422904968261719,2.7030789184570314,0.04018644616007805,0.5659963488578796,-0.19814804196357727
1776614100.6485662,-0.20178039550781252,-9.422904968261719,2.7030789184570314,0.04018644616007805,0.5659963488578796,-0.19814804196357727
1776614100.7179835,-0.20178039550781252,-9.422904968261719,2.7030789184570314,0.04018644616007805,0.5659963488578796,-0.19814804196357727
1776614100.7850928,-0.20178039550781252,-9.422904968261719,2.7030789184570314,0.04018644616007805,0.5659963488578796,-0.19814804196357727
1776614100.8623724,-0.20178039550781252,-9.422904968261719,2.7030789184570314,0.04018644616007805,0.5659963488578796,-0.19814804196357727
1776614100.938214,-0.20178039550781252,-9.422904968261719,2.7030789184570314,0.04018644616007805,0.5659963488578796,-0.19814804196357727
1776614101.008254,-0.20178039550781252,-9.422904968261719,2.7030789184570314,0.04018644616007805,0.5659963488578796,-0.19814804196357727
1776614101.0772011,-0.20178039550781252,-9.422904968261719,2.7030789184570314,0.04018644616007805,0.5659963488578796,-0.19814804196357727
1776614101.1471758,-0.20178039550781252,-9.422904968261719,2.7030789184570314,0.04018644616007805,0.5659963488578796,-0.19814804196357727
1776614101.2200913,-0.20178039550781252,-9.422904968261719,2.7030789184570314,0.04018644616007805,0.5659963488578796,-0.19814804196357727
1776614101.2924201,-0.20178039550781252,-9.422904968261719,2.7030789184570314,0.04018644616007805,0.5659963488578796,-0.19814804196357727
1776614101.3627102,-0.20178039550781252,-9.422904968261719,2.7030789184570314,0.04018644616007805,0.5659963488578796,-0.19814804196357727
1776614101.4368105,-0.20178039550781252,-9.422904968261719,2.7030789184570314,0.04018644616007805,0.5659963488578796,-0.19814804196357727
1776614101.5119991,-0.20178039550781252,-9.422904968261719,2.7030789184570314,0.04018644616007805,0.5659963488578796,-0.19814804196357727
1776614101.587663,-0.20178039550781252,-9.422904968261719,2.7030789184570314,0.04018644616007805,0.5659963488578796,-0.19814804196357727
1776614101.664453,-0.20178039550781252,-9.422904968261719,2.7030789184570314,0.04018644616007805,0.5659963488578796,-0.19814804196357727
1776614101.7366502,-0.20178039550781252,-9.422904968261719,2.7030789184570314,0.04018644616007805,0.5659963488578796,-0.19814804196357727
1776614101.8093927,-0.20178039550781252,-9.422904968261719,2.7030789184570314,0.04018644616007805,0.5659963488578796,-0.19814804196357727
1776614101.882703,-0.20178039550781252,-9.422904968261719,2.7030789184570314,0.04018644616007805,0.5659963488578796,-0.19814804196357727
1776614101.9559596,-0.20178039550781252,-9.422904968261719,2.7030789184570314,0.04018644616007805,0.5659963488578796,-0.19814804196357727
1776614102.0294852,-0.20178039550781252,-9.422904968261719,2.7030789184570314,0.04018644616007805,0.5659963488578796,-0.19814804196357727
1776614102.1046617,-0.20178039550781252,-9.422904968261719,2.7030789184570314,0.04018644616007805,0.5659963488578796,-0.19814804196357727
1776614102.178888,-0.20178039550781252,-9.422904968261719,2.7030789184570314,0.04018644616007805,0.5659963488578796,-0.19814804196357727
1776614102.2541459,-0.20178039550781252,-9.422904968261719,2.7030789184570314,0.04018644616007805,0.5659963488578796,-0.19814804196357727
1776614102.328853,-0.20178039550781252,-9.422904968261719,2.7030789184570314,0.04018644616007805,0.5659963488578796,-0.19814804196357727
1776614102.405673,-0.20178039550781252,-9.422904968261719,2.7030789184570314,0.04018644616007805,0.5659963488578796,-0.19814804196357727
1776614102.4803576,-0.20178039550781252,-9.422904968261719,2.7030789184570314,0.04018644616007805,0.5659963488578796,-0.19814804196357727
1776614102.553665,-0.20178039550781252,-9.422904968261719,2.7030789184570314,0.04018644616007805,0.5659963488578796,-0.19814804196357727
1776614102.6281085,-0.20178039550781252,-9.422904968261719,2.7030789184570314,0.04018644616007805,0.5659963488578796,-0.19814804196357727
1776614102.6997263,-0.20178039550781252,-9.422904968261719,2.7030789184570314,0.04018644616007805,0.5659963488578796,-0.19814804196357727
1776614102.77592,-0.20178039550781252,-9.422904968261719,2.7030789184570314,0.04018644616007805,0.5659963488578796,-0.19814804196357727
1776614102.8525596,-0.20178039550781252,-9.422904968261719,2.7030789184570314,0.04018644616007805,0.5659963488578796,-0.19814804196357727
1776614102.9238367,-0.20178039550781252,-9.422904968261719,2.7030789184570314,0.04018644616007805,0.5659963488578796,-0.19814804196357727
1776614102.995726,-0.20178039550781252,-9.422904968261719,2.7030789184570314,0.04018644616007805,0.5659963488578796,-0.19814804196357727
1776614103.0647368,-0.20178039550781252,-9.422904968261719,2.7030789184570314,0.04018644616007805,0.5659963488578796,-0.19814804196357727
1776614103.1342015,-0.20178039550781252,-9.422904968261719,2.7030789184570314,0.04018644616007805,0.5659963488578796,-0.19814804196357727
1776614103.2031505,-0.20178039550781252,-9.422904968261719,2.7030789184570314,0.04018644616007805,0.5659963488578796,-0.19814804196357727
1776614103.270663,-0.20178039550781252,-9.422904968261719,2.7030789184570314,0.04018644616007805,0.5659963488578796,-0.19814804196357727
1776614103.3440878,-0.20178039550781252,-9.422904968261719,2.7030789184570314,0.04018644616007805,0.5659963488578796,-0.19814804196357727
1776614103.4157436,-0.20178039550781252,-9.422904968261719,2.7030789184570314,0.04018644616007805,0.5659963488578796,-0.19814804196357727
1776614103.4890656,-0.20178039550781252,-9.422904968261719,2.7030789184570314,0.04018644616007805,0.5659963488578796,-0.19814804196357727
1776614103.5628958,-0.20178039550781252,-9.422904968261719,2.7030789184570314,0.04018644616007805,0.5659963488578796,-0.19814804196357727
