timestamp,AccX,AccY,AccZ,GyroX,GyroY,GyroZ
1778958562.6405478,0.5161267089843751,-0.03757186889648523,1.3491444396972656,0.03339534252882004,-0.03984414041042328,-0.029846804216504097
1778958562.660329,0.7631130981445313,-0.09819580078124979,1.376986541748047,0.14164848625659943,-0.0368838757276535,-0.08972981572151184
1778958562.6820107,0.7884104919433594,-0.310005340576172,1.4864089965820313,0.1669437438249588,-0.052202966064214706,-0.08498915284872055
1778958562.7046905,0.7273374938964844,-0.517623596191406,1.4563215637207032,0.16087479889392853,-0.06309285014867783,-0.048551566898822784
1778958562.729172,0.7225474548339844,-0.44996429443359354,1.4868580627441408,0.04282910004258156,-0.08876475691795349,0.012981580570340157
1778958562.7496128,0.6710545349121094,-0.2628533935546873,1.5425422668457032,-0.02789674699306488,-0.05266784876585007,0.03053848072886467
1778958562.7709408,0.6966513061523438,-0.09639953613281271,1.5447875976562502,-0.06188313663005829,-0.021475305780768394,0.024346571415662766
1778958562.79267,0.6876699829101562,0.014669494628906321,1.5260765075683596,-0.06803827732801437,0.008265916258096695,-0.005331332329660654
1778958562.8125207,0.63947021484375,0.11645782470703203,1.5144007873535157,-0.04375534877181053,0.012163080275058746,-0.017981961369514465
1778958562.8312387,0.5604345703125,-0.054486694335937,1.354084167480469,-0.04718390852212906,0.010999171063303947,-0.048092134296894073
1778958562.8484342,0.4890330505371094,-0.1766326904296882,1.1969110107421876,-0.052507590502500534,-0.0014602686278522015,-0.04606284201145172
1778958562.8666046,0.4273612976074219,-0.22079086303710938,1.1629316711425781,-0.042397912591695786,-0.011193269863724709,-0.03845897316932678
1778958562.8859358,0.37736526489257816,-0.18291961669921797,1.1817924499511718,-0.009577520191669464,-0.008401266299188137,-0.04088857024908066
1778958562.9051409,0.27872039794921877,-0.06481521606445284,1.2671150207519533,0.040217719972133636,0.003976311068981886,-0.02109387144446373
1778958562.924847,0.6027964782714844,-0.14624588012695305,1.2841795349121095,0.07145805656909943,-0.020652763545513153,-0.02633916772902012
1778958562.949748,0.6324348449707031,-0.3957769775390627,1.666783905029297,-0.02138655073940754,0.02760845609009266,-0.15731240808963776
1778958562.9698782,0.5357359313964845,-0.32078292846679624,1.8215620422363281,-0.10036984086036682,0.039755504578351974,-0.09465430676937103
1778958562.9882102,0.8387059020996094,-0.25491989135742266,1.4665003967285157,-0.07828955352306366,0.008021226152777672,-0.05533972382545471
1778958563.0120938,0.5921685791015625,-0.22692810058593693,1.5226336669921876,-0.03566155582666397,0.03442726656794548,-0.1226814016699791
1778958563.0317776,0.5035528564453126,-0.14235397338867273,1.7905764770507813,0.005441728048026562,0.04948882758617401,-0.10658497363328934
1778958563.0506046,0.51971923828125,-0.16241226196289027,1.9809805297851564,0.0813649520277977,0.06300346553325653,-0.06449508666992188
1778958563.071063,0.6643185424804687,-0.2884501647949218,1.870360565185547,0.15562403202056885,0.044697266072034836,-0.06826959550380707
1778958563.088884,0.6291416931152344,-0.3498225402832027,1.7019607543945314,0.14261576533317566,-0.007836035452783108,-0.0597839280962944
1778958563.1086326,0.47571075439453125,-0.4411326599121086,1.4108161926269531,0.06947971135377884,-0.07075326889753342,0.0005376781336963177
1778958563.127199,0.5282514953613282,-0.6436614990234375,1.3269905090332033,0.08466078341007233,-0.09705139696598053,0.017403284087777138
1778958563.1420593,0.4340972900390625,-0.6084846496582035,1.4048286437988282,0.10045161098241806,-0.0964035615324974,0.010837242007255554
1778958563.1585112,0.1675016784667969,-0.3242257690429682,1.534010009765625,0.11503972113132477,-0.08198483288288116,0.01658249832689762
1778958563.175362,0.11406280517578125,-0.07604187011718722,1.3659095764160156,0.1985495388507843,-0.07762129604816437,-3.996165469288826e-05
1778958563.1956558,0.3016227722167969,0.14923965454101484,1.1850856018066407,0.297762930393219,-0.0728134885430336,-0.027610601857304573
1778958563.2160683,0.32482452392578126,0.3059637451171877,1.1156300354003907,0.3581213355064392,-0.11276298761367798,-0.045557353645563126
1778958563.2357,0.24474105834960938,-0.3562591552734382,0.8190966796875,0.3711317181587219,-0.1280040442943573,-0.14332489669322968
1778958563.255568,0.08861572265625,-0.5188211059570307,1.0401869201660157,0.5402373671531677,-0.06255233287811279,-0.13432234525680542
1778958563.2764935,0.16136444091796875,-0.3011737060546871,1.252445526123047,0.5872688889503479,-0.04429289698600769,-0.03101510927081108
1778958563.324231,0.5941145324707031,-0.18576370239257756,1.169817352294922,0.62964928150177,-0.05705935135483742,-0.07181477546691895
1778958563.3452203,0.5026547241210938,-0.40341110229492116,1.0747650146484375,0.713318943977356,-0.09159824252128601,-0.06532029807567596
1778958563.3702874,0.38589752197265625,-0.5887257385253903,1.0496173095703125,0.7443885207176208,-0.12562189996242523,-0.004796845838427544
1778958563.3911233,0.1742376708984375,-0.8180488586425785,0.8590635681152344,0.7660217881202698,-0.13334259390830994,-0.0012329118326306343
1778958563.4119487,0.011825408935546875,-0.6650669860839837,0.6243516540527344,0.7198302149772644,-0.12884347140789032,0.009607936255633831
1778958563.4339502,0.43110351562500004,-0.06152206420898487,0.36898269653320315,0.7918232679367065,-0.1359979510307312,0.06039736419916153
1778958563.4536808,0.5481600952148438,0.02694396972656321,0.22049148559570314,0.8323693871498108,-0.1736862063407898,0.046841345727443695
1778958563.4730237,0.5007087707519532,0.07259902954101527,-0.19354751586914062,0.8524216413497925,-0.19902697205543518,0.03286267817020416
1778958563.4915884,0.4236190795898438,0.1523831176757806,-0.446671142578125,0.8615691661834717,-0.2772158980369568,0.014360894449055195
1778958563.5126219,0.295784912109375,0.5149291992187504,-1.0744656372070314,0.8993110656738281,-0.3265632688999176,-0.0004854220896959305
1778958563.5322104,0.06541397094726563,0.7349716186523434,-1.4847624206542969,1.2498981952667236,-0.2666350305080414,-0.04049089550971985
1778958563.554063,0.23441253662109376,0.22632934570312457,-1.36037109375,1.5031592845916748,-0.12293199449777603,-0.08532711118459702
1778958563.5734172,0.6947053527832031,-0.26584716796875085,-0.9352551269531251,1.5510708093643188,0.017630714923143387,-0.07968248426914215
1778958563.5952108,0.5062472534179687,-0.5508544921875007,-0.6647676086425781,1.346949577331543,0.04688010737299919,0.009119551628828049
1778958563.6150563,0.4393363952636719,-0.08217910766601477,-1.2361294555664064,1.2142343521118164,0.08922255039215088,0.01640540361404419
1778958563.636915,0.8580157470703126,0.14519805908203054,-1.878743133544922,1.2651857137680054,0.06986020505428314,0.0240444615483284
1778958563.65623,0.7427554321289063,0.0050894165039068184,-2.1644989013671876,1.3827530145645142,0.05525776743888855,0.044507332146167755
1778958563.67716,0.19788848876953127,-0.13980926513671932,-2.2897883605957032,1.3521428108215332,0.06339303404092789,0.08262970298528671
1778958563.6978135,0.07993377685546875,-0.4161346435546882,-2.4397764587402344,1.2204793691635132,0.06515701115131378,0.12447704374790192
1778958563.7167325,0.045056304931640624,-0.22528152465820384,-3.1522947692871095,1.120875358581543,0.09059031307697296,0.14592161774635315
1778958563.7361567,0.40086639404296875,0.3647914123535152,-3.7440142822265625,1.1281988620758057,0.11385956406593323,0.145898699760437
1778958563.785909,0.5182223510742188,0.614621887207031,-3.8923558044433597,1.2327518463134766,0.16309432685375214,0.14131486415863037
1778958563.8052845,0.3683839416503906,0.3296145629882812,-5.563929748535156,0.8269519209861755,-0.07210986316204071,0.03900640457868576
1778958563.8266656,0.13561798095703126,-0.09400451660156328,-6.338568878173828,0.8189836740493774,-0.08666139841079712,-0.05481259524822235
1778958563.8475976,0.09086105346679688,0.28111541748046953,-6.148314514160156,0.8940663933753967,-0.016463756561279297,-0.07966886460781097
1778958563.8680155,0.27078689575195314,0.938697967529297,-5.967939605712891,0.7492925524711609,-0.013121111318469048,-0.06366431713104248
1778958563.8857398,0.6062393188476562,0.6879693603515626,-6.27061019897461,0.5856723189353943,-0.023925606161355972,-0.08096446841955185
1778958563.9040108,0.9608518981933595,0.27273284912109297,-5.931864624023437,0.46313050389289856,0.02022416889667511,-0.16168621182441711
1778958563.924935,1.1753558349609377,-0.11930191040038984,-5.477259979248047,0.26810652017593384,0.03889009729027748,-0.1666051149368286
1778958563.9448848,1.0294093322753908,-0.8280780029296881,-5.248535614013672,0.19197723269462585,0.12859345972537994,-0.12038032710552216
1778958563.966069,0.6990463256835938,-1.0225236511230467,-5.144052886962891,0.07828711718320847,0.20384405553340912,-0.023246614262461662
1778958564.0158415,0.7372169494628906,-0.3541635131835932,-6.033652954101563,-0.16497182846069336,0.3038425147533417,0.018736813217401505
1778958564.0351362,0.43649230957031254,0.044158172607421164,-5.889203338623047,-0.1977759450674057,0.3141906261444092,-0.00957917608320713
1778958564.0546944,0.3555107116699219,-0.10014175415039084,-5.968538360595703,-0.26927450299263,0.2911769151687622,-0.041139889508485794
1778958564.073345,0.47571075439453125,-0.44128234863281257,-5.98036376953125,-0.265365332365036,0.2744244635105133,-0.03737485781311989
1778958564.0955234,0.5343887329101563,-0.6529421997070308,-5.733527069091797,-0.28625479340553284,0.26524460315704346,-0.026242371648550034
1778958564.1152077,0.61552001953125,-0.7120692443847663,-5.383105773925782,-0.41775402426719666,0.24984024465084076,-0.0130307050421834
1778958564.1340404,0.7476951599121094,-0.5328918457031246,-5.0850755310058595,-0.5492894053459167,0.21236254274845123,-0.007673915475606918
1778958564.1582043,0.880019989013672,-0.1535806274414071,-5.134772186279297,-0.5215274095535278,0.19931013882160187,-0.046477049589157104
1778958564.1799846,0.6216572570800781,-0.2857557678222662,-4.842430114746094,-0.461519718170166,0.21508607268333435,-0.06839298456907272
1778958564.2279055,0.6243516540527344,-0.9517208862304685,-4.568799133300781,-0.4931023418903351,0.27490729093551636,-0.02968364953994751
1778958564.2499626,0.988993377685547,-1.262774047851563,-4.037404174804688,-0.7352539300918579,0.32117703557014465,-0.028785647824406624
1778958564.270199,1.0301577758789062,-1.299447784423828,-4.0091130065917975,-0.7125346660614014,0.33322980999946594,-0.010211463086307049
1778958564.288203,0.7565267944335938,-1.250349884033204,-3.9505847167968753,-0.6766799092292786,0.4162203371524811,0.0032884017564356327
1778958564.3100815,0.6599775695800781,-1.274898834228516,-3.583697662353516,-0.7366896867752075,0.48565414547920227,-0.010154688730835915
1778958564.3338358,0.8798703002929688,-1.3097763061523438,-3.1853759765625003,-0.8342875242233276,0.4766952097415924,-0.006204415112733841
1778958564.353545,0.9825567626953126,-1.4853611755371094,-2.970872039794922,-0.8918091058731079,0.4679690897464752,-0.020008180290460587
1778958564.3723073,1.0473719787597657,-1.493444366455078,-2.781964874267578,-0.9014599323272705,0.46409040689468384,0.020347386598587036
1778958564.3940365,0.9304650878906251,-1.6708255004882808,-2.5132736206054687,-0.8570452332496643,0.48457610607147217,0.05110788717865944
1778958564.414336,0.8927435302734376,-1.8556910705566407,-2.3836431884765625,-0.8410390019416809,0.5270909070968628,0.011405717581510544
1778958564.4631882,0.7705975341796876,-1.8345849609374998,-2.1906944274902345,-0.8073992133140564,0.43569549918174744,-0.11753490567207336
1778958564.4850183,0.661025390625,-1.773362274169921,-2.4192691040039063,-0.7494944334030151,0.4393700063228607,-0.08700792491436005
1778958564.5048347,1.0750643920898437,-1.7624349975585947,-2.4373814392089845,-0.7530208230018616,0.3706188201904297,-0.0035723885521292686
1778958564.5243013,1.1096424865722656,-1.3959970092773446,-2.232307891845703,-0.6644062399864197,0.32965004444122314,0.01432584784924984
1778958564.543373,1.4424005126953126,-1.3922547912597665,-2.232756958007813,-0.4612049460411072,0.2625197768211365,-0.0657806321978569
1778958564.5616918,1.3248948669433593,-1.7119898986816402,-2.340981903076172,-0.30108359456062317,0.21902091801166534,-0.11949767917394638
1778958564.5803068,0.9216334533691407,-1.4200968933105464,-1.9056871032714844,-0.39202243089675903,0.2311895191669464,-0.04146140441298485
1778958564.599599,1.0008187866210938,-0.931363220214843,-1.3202545166015627,-0.5551322102546692,0.2829676866531372,0.024926112964749336
1778958564.621509,1.1988569641113282,-0.7125183105468746,-0.9461824035644532,-0.6098894476890564,0.34439656138420105,-0.03126850724220276
1778958564.670469,1.4551240539550783,-0.8870553588867196,-0.8458909606933595,-0.45587077736854553,0.42518186569213867,-0.1963769942522049
1778958564.6897814,1.4385086059570313,-1.4114149475097655,-0.7948471069335938,-0.4804641008377075,0.5212324261665344,-0.010651297867298126
1778958564.7103643,1.5308665466308595,-1.5305671691894531,-1.0198292541503906,-0.5244548916816711,0.4891948103904724,-0.02421591430902481
1778958564.7320898,1.308728485107422,-1.2460089111328134,-0.880169677734375,-0.4728167951107025,0.46100282669067383,-0.10917097330093384
1778958564.7521114,0.9713301086425782,-0.9361532592773436,-0.8735833740234376,-0.4138191342353821,0.4401817321777344,-0.15820585191249847
1778958564.7712438,0.9490264892578125,-1.0867401123046871,-0.9361532592773438,-0.39484837651252747,0.39205268025398254,-0.11487674713134766
1778958564.7902923,1.4178515625,-1.119971008300782,-0.7827223205566407,-0.39095544815063477,0.3232194185256958,-0.06499067693948746
1778958564.8328183,1.6889378356933595,-0.8517288208007816,-0.4709207153320313,-0.38567304611206055,0.261554479598999,-0.09016584604978561
1778958565.9612455,0.14953903198242188,-0.16705261230468693,0.7936495971679688,0.3099258542060852,0.29009127616882324,0.08383551985025406
1778958565.9870162,0.11840377807617188,0.08517288208007834,0.7557783508300782,0.3315383493900299,0.31417787075042725,0.0970013216137886
1778958566.00897,-0.006286926269531251,0.05688171386718821,0.8190966796875,0.329441636800766,0.36288413405418396,0.15805406868457794
1778958566.267985,0.043858795166015624,-0.07020401000976584,0.9702822875976563,0.27194586396217346,0.3926287293434143,0.19534945487976074
1778958566.2855473,0.7011419677734375,1.1930191040039055,-0.14190490722656252,0.10439594835042953,0.22089359164237976,0.2321237176656723
1778958566.305919,0.030686187744140628,0.45774810791015597,-1.5368540954589844,0.14782235026359558,0.19687752425670624,0.2033153623342514
1778958566.381859,0.38993911743164067,-0.37916152954101534,0.20686981201171875,0.07381026446819305,-0.021077487617731094,0.2150920331478119
1778958566.4069734,-0.28800109863281254,0.07798782348632827,-0.3715274047851563,0.12220337241888046,-0.0841442346572876,0.20422153174877167
1778958566.4241567,-0.26764343261718754,0.17318984985351626,-0.6724017333984376,0.11794683337211609,-0.1193210631608963,0.17662055790424347
1778958566.441627,0.1722917175292969,0.013621673583983807,-1.069525909423828,0.07626425474882126,-0.1956929862499237,0.09613950550556183
1778958566.4583669,0.5144801330566406,-0.315394134521485,-1.0554551696777343,0.011760255321860313,-0.27506664395332336,0.05402904003858566
1778958566.4766192,0.6080355834960938,-0.38065841674804624,-0.8090675354003907,0.021191084757447243,-0.32737791538238525,0.031204987317323685
1778958566.4941635,0.8384065246582032,-0.2826123046875004,-0.6623725891113281,0.04402965307235718,-0.3527664244174957,0.018154244869947433
1778958566.5147488,1.154249725341797,-0.31674133300781193,-0.7322772216796876,0.033800553530454636,-0.3767421841621399,-0.012972056865692139
1778958566.5353127,1.2398716735839845,-0.3011737060546871,-0.9276210021972656,0.01078682392835617,-0.39939773082733154,-0.02196604385972023
1778958566.557825,1.2504995727539063,-0.30296997070312415,-1.1103909301757813,-0.021292556077241898,-0.4324388802051544,0.006709024775773287
1778958566.5773304,1.2698094177246095,-0.18381774902343828,-1.1064990234375,-0.03433457389473915,-0.44870391488075256,0.03337123245000839
1778958566.5967011,1.2283456420898438,-0.06122268676757869,-0.8807684326171875,-0.045483097434043884,-0.44353312253952026,0.046335235238075256
1778958566.6147244,1.2966036987304688,0.1441502380371098,-0.580642547607422,-0.0654333084821701,-0.44769707322120667,0.05151188373565674
1778958566.6338222,1.393751678466797,0.3647914123535152,-0.4309538269042969,-0.09728683531284332,-0.4914463460445404,0.05167299509048462
1778958566.6536252,1.3952485656738283,0.5071453857421879,-0.5610333251953126,-0.11096735298633575,-0.5289546847343445,0.07641107589006424
1778958566.6733818,1.400787048339844,0.18561401367187536,-0.7875123596191407,-0.08052024990320206,-0.5549770593643188,0.10791872441768646
1778958566.6927636,1.4229409790039063,-0.04909790039062578,-0.9141490173339845,-0.07028039544820786,-0.551074206829071,0.11441550403833389
1778958566.7143195,1.5167958068847658,-0.48948211669921804,-0.6623725891113281,-0.11021190881729126,-0.6032513380050659,0.10724787414073944
1778958566.7340076,1.6323554992675782,-0.49861312866210916,-0.2847079467773438,-0.145219624042511,-0.6536766886711121,0.10151544213294983
1778958566.7525935,1.5414944458007813,-0.5448669433593754,-0.22962249755859376,-0.1324961632490158,-0.6828697919845581,0.07766971737146378
1778958566.7714052,1.4760804748535157,-0.5147795104980464,-0.27273284912109375,-0.11473047733306885,-0.6947218775749207,0.07307256758213043
1778958566.7925005,1.4901512145996094,-0.2667453002929694,-0.5146298217773437,-0.10591457784175873,-0.7341119050979614,0.06001939997076988
1778958566.8115158,1.5730787658691407,-0.2216889953613279,-0.5780978393554688,-0.13102684915065765,-0.7474988102912903,0.04478319361805916
1778958566.8328006,1.6637901306152345,-0.18411712646484446,-0.5572911071777344,-0.14433753490447998,-0.7815674543380737,-0.025269651785492897
1778958566.853306,1.7292041015625002,-0.33964370727539084,-0.4451742553710938,-0.058919355273246765,-0.7475864887237549,-0.020895183086395264
1778958566.8729205,1.750609588623047,-0.5975573730468753,-0.5812413024902344,-0.1416797786951065,-0.7415574789047241,-0.03160875663161278
1778958566.8939416,1.8706599426269532,-0.4697232055664067,-0.544866943359375,-0.13953785598278046,-0.7197121977806091,-0.05041174590587616
1778958566.916047,2.036964111328125,-0.4150868225097657,-0.37137771606445313,-0.08005118370056152,-0.6870718002319336,-0.04035734385251999
1778958566.937164,2.245630187988281,-0.5162763977050773,-0.271834716796875,-0.07437540590763092,-0.6861024498939514,-0.03055129200220108
1778958566.9611328,2.289339294433594,-0.5810916137695319,-0.36479141235351564,-0.0808720737695694,-0.6761196851730347,-0.05658657103776932
1778958566.9815207,2.2411395263671876,-0.5557942199707036,-0.47331573486328127,-0.050131913274526596,-0.656051516532898,-0.06808269023895264
1778958567.0029354,2.1119581604003907,-0.5040019226074222,-0.32482452392578126,-0.030752088874578476,-0.6090251207351685,-0.07194080948829651
1778958567.0254238,2.0890557861328127,-0.3405418395996094,-0.2847079467773438,-0.05905632674694061,-0.5698058009147644,-0.07399111241102219
1778958567.0454257,2.195933532714844,-0.35610946655273423,-0.42242156982421875,-0.06378941237926483,-0.5459441542625427,-0.07696030288934708
1778958567.0658047,2.3275099182128907,-0.2664459228515632,-0.5728587341308594,-0.08005140721797943,-0.5658069252967834,-0.06426075845956802
1778958567.0840323,2.1607566833496095,-0.21001327514648516,-0.7125183105468751,-0.09832615405321121,-0.5988287925720215,-0.07200203090906143
1778958567.1051843,1.7696200561523439,-0.18202148437499943,-0.822689208984375,-0.09184131026268005,-0.577426016330719,-0.0894739031791687
1778958567.125301,1.6748670959472658,-0.030386810302735157,-0.6393205261230469,-0.06763821095228195,-0.538275957107544,-0.10040812194347382
1778958567.1482284,1.8134788513183595,0.05298980712890611,-0.4358935546875,-0.08963079750537872,-0.5508612394332886,-0.08262485265731812
1778958567.171212,1.9046392822265625,0.05658233642578203,-0.3764671325683594,-0.10557880997657776,-0.6224954128265381,-0.036025114357471466
1778958567.1931822,1.3678555297851562,0.3576063537597651,-0.7235952758789063,-0.09267633408308029,-0.721062958240509,0.040230803191661835
1778958567.2146535,0.91729248046875,0.13037887573242202,-1.5533198547363283,-0.0776466578245163,-0.810400128364563,0.06729599833488464
1778958567.2366662,0.5373825073242188,-0.32871643066406264,-1.909728698730469,0.025971826165914536,-0.7661027312278748,0.025869406759738922
1778958567.2592547,0.27872039794921877,-0.31479537963867266,-1.3418096923828127,0.043995484709739685,-0.7466573119163513,-0.0619935542345047
1778958567.281728,0.30386810302734374,-0.0763412475585934,-0.434696044921875,0.013456740416586399,-0.8092576265335083,-0.13629303872585297
1778958567.3020537,0.4098477172851563,-0.07035369873046804,-0.5459147644042969,0.034766633063554764,-0.9099127650260925,-0.18645690381526947
1778958567.3238719,0.2293231201171875,0.06601272583007756,-0.9403445434570313,0.07509694993495941,-0.9991520643234253,-0.26164862513542175
1778958567.3431714,0.030087432861328128,0.3216810607910148,-1.2175680541992189,0.11317615211009979,-1.0543954372406006,-0.3096608817577362
1778958567.3630822,-0.0209564208984375,0.3683839416503911,-1.3427078247070314,0.12241744250059128,-1.0865963697433472,-0.31911423802375793
1778958567.3838341,0.018411712646484377,0.2151026916503902,-1.2555889892578125,0.14755357801914215,-1.107032060623169,-0.3052200973033905
1778958567.4045343,0.10927276611328125,-0.18711090087890625,-1.0794053649902344,0.14452135562896729,-1.142994999885559,-0.3010016083717346
1778958567.4265184,-0.012723541259765625,-0.6054908752441399,-0.9087602233886719,0.11824869364500046,-1.164779782295227,-0.31451615691185
1778958567.5179343,-0.5930667114257813,-0.033679962158203125,-0.45101211547851566,0.0838257297873497,-1.1287297010421753,-0.15134714543819427
1778958567.5729473,-0.7949967956542969,-0.07649093627929737,-0.7705975341796876,0.0375310517847538,-1.1883231401443481,-0.1458364874124527
1778958567.6323476,-0.6514453125,0.4433779907226558,-0.8957373046875,-0.07189910858869553,-1.1223325729370117,-0.19667723774909973
1778958567.6841476,-0.6450086975097656,-0.2125579833984368,-0.7472460937500001,-0.0677337795495987,-1.0708726644515991,-0.1575632095336914
1778958567.7304156,-0.5896238708496094,-0.13980926513671932,-0.5312452697753907,-0.14605261385440826,-0.9475455284118652,-0.047655608505010605
1778958567.7523024,-0.5899232482910156,-0.29443771362304716,-0.6014492797851563,-0.16928011178970337,-0.8902978301048279,0.018896829336881638
1778958567.7720172,-0.6274951171875001,-0.29069549560546903,-0.6158193969726563,-0.19295740127563477,-0.8603518605232239,0.015039695426821709
1778958567.792458,-0.6511459350585938,-0.08637039184570305,-0.643062744140625,-0.21733765304088593,-0.8376286029815674,0.011088678613305092
1778958567.8118613,-0.6956034851074219,0.014220428466796164,-0.6816824340820313,-0.22237162292003632,-0.8175181150436401,0.04004654660820961
1778958567.8331456,-0.6487509155273438,-0.09400451660156328,-0.7110214233398438,-0.22635114192962646,-0.7809092998504639,0.08113551139831543
1778958567.8519695,-0.669407958984375,-0.19564315795898501,-0.6559359741210938,-0.250693678855896,-0.7458925843238831,0.10150968283414841
1778958567.870177,-0.5740562438964844,-0.21555175781250036,-0.5902226257324219,-0.2580956220626831,-0.7131270170211792,0.12011025100946426
1778958567.889731,-0.5272036743164062,-0.2541714477539063,-0.47990203857421876,-0.24927601218223572,-0.674139678478241,0.12764856219291687
1778958567.907844,-0.4123924255371094,-0.1972897338867181,-0.5643264770507813,-0.24337218701839447,-0.633648693561554,0.12507513165473938
1778958567.924152,-0.43379791259765627,-0.1483415222167963,-0.6122268676757813,-0.24479830265045166,-0.6170196533203125,0.12626157701015472
1778958567.9419935,-0.40206390380859375,-0.06242019653320341,-0.7614665222167969,-0.23793914914131165,-0.5848023295402527,0.145020991563797
1778958567.9574394,-0.2920426940917969,-0.1522334289550784,-0.7740403747558594,-0.20872579514980316,-0.5617079138755798,0.1759582906961441
1778958567.97252,-0.26494903564453126,-0.24983047485351584,-0.7060816955566407,-0.19669277966022491,-0.5454708337783813,0.18672364950180054
1778958567.9904146,-0.19145187377929687,-0.33709899902343743,-0.686173095703125,-0.21990182995796204,-0.5219131112098694,0.20127759873867035
1778958568.0099242,-0.24399261474609377,-0.3592529296875,-0.7664062500000001,-0.21216601133346558,-0.5065323710441589,0.19219642877578735
1778958568.030811,-0.3177891540527344,-0.20193008422851477,-0.7473957824707032,-0.12408660352230072,-0.4761033058166504,0.20207807421684265
1778958568.049602,-0.34203872680664066,-0.18067428588867251,-0.8210426330566407,-0.20490887761116028,-0.4802064001560211,0.2040908932685852
1778958568.0698106,-0.3147953796386719,-0.27018814086914134,-0.9336085510253906,-0.18486633896827698,-0.4575594365596771,0.1875646412372589
1778958568.091574,-0.20582199096679688,-0.1877096557617186,-0.8523275756835937,-0.11507546901702881,-0.4362737536430359,0.1999494582414627
1778958568.1103308,-0.029488677978515627,-0.23770568847656293,-0.7650590515136719,-0.10365922749042511,-0.4633713364601135,0.2243141531944275
1778958568.1298807,-0.124541015625,-0.2841091918945313,-0.9219328308105469,-0.11019521951675415,-0.4813431203365326,0.212405264377594
1778958568.1499484,-0.295784912109375,-0.19923568725585916,-0.9246272277832032,-0.07773575186729431,-0.41836923360824585,0.19336795806884766
1778958568.1706913,-0.12648696899414064,0.023501129150391264,-0.7137158203125,-0.041657909750938416,-0.35771769285202026,0.19222120940685272
1778958568.1880481,0.281414794921875,-0.11915222167968764,-0.6556365966796875,-0.008275794796645641,-0.32428014278411865,0.16829706728458405
1778958568.2098575,0.590372314453125,-0.4406835937500002,-0.6090834045410156,0.04102171212434769,-0.2859678864479065,0.1754249781370163
1778958568.2271736,0.6641688537597656,-0.6423143005371088,-0.5090913391113282,0.031064355745911598,-0.2469780147075653,0.26434311270713806
1778958568.2457616,0.8316705322265625,-0.708027648925782,-0.31569351196289064,0.046332791447639465,-0.21599817276000977,0.3400823771953583
1778958568.2629151,1.0969189453125001,-0.5795947265624992,-0.26105712890625,0.03919152170419693,-0.20236864686012268,0.3366471529006958
1778958568.2816107,1.159339141845703,-0.2636018371582036,-0.32826736450195315,0.019953321665525436,-0.20104846358299255,0.2773621678352356
1778958568.3001983,1.082548828125,-0.008083190917968608,-0.4197271728515625,0.06102811545133591,-0.17388862371444702,0.23178407549858093
1778958568.3198104,1.0988648986816407,0.03517684936523402,-0.49172744750976566,0.08693867176771164,-0.14843890070915222,0.1940215677022934
1778958568.3406484,1.2493020629882814,0.11241622924804773,-0.5469625854492188,0.08387677371501923,-0.11879707872867584,0.13207454979419708
1778958568.360917,1.312321014404297,0.43304946899414,-0.23905288696289065,0.07040524482727051,-0.07928234338760376,0.08333573490381241
1778958568.380496,1.4292279052734376,0.802930297851562,0.10612930297851562,0.0703260749578476,-0.034086450934410095,0.06359242647886276
1778958568.398518,1.627266082763672,0.8924441528320308,0.3944297790527344,0.08021139353513718,-0.003322932869195938,0.0891374871134758
1778958568.4191573,1.5751744079589844,0.8017327880859373,0.5501060485839844,0.07947064191102982,0.08259637653827667,0.1330615133047104
1778958568.440728,1.581760711669922,0.8915460205078123,0.484991455078125,0.08927313983440399,0.17621290683746338,0.20069432258605957
1778958569.8480265,0.21091140747070314,-0.10972183227539034,0.027991790771484375,-0.12866152822971344,-0.7185792326927185,-0.058955319225788116
1778958569.8694453,-0.044307861328125,-0.13980926513671932,0.039218444824218754,-0.1017114594578743,-0.6383407115936279,0.02173948660492897
1778958569.890716,0.07679031372070313,-0.2909948730468752,0.19773880004882813,-0.11101095378398895,-0.5980504155158997,0.08407371491193771
1778958569.911388,0.31988479614257814,-0.41852966308593764,0.27422973632812503,-0.11614946275949478,-0.5792631506919861,0.11373736709356308
1778958569.9317002,-0.17109420776367187,-0.4261637878417961,0.2848576354980469,-0.11086089164018631,-0.5499736666679382,0.13998736441135406
1778958569.9503593,-0.39712417602539063,-0.3799099731445317,0.17618362426757814,-0.07151047885417938,-0.48780134320259094,0.1478598564863205
1778958569.9708464,-0.45116180419921875,-0.22797592163085945,0.08906478881835939,-0.06395184248685837,-0.47049927711486816,0.17185020446777344
1778958569.99003,-0.24953109741210938,-0.3332070922851571,0.12034973144531251,-0.0800519809126854,-0.4767010807991028,0.14740079641342163
1778958570.0071795,-0.14609619140625002,-0.4668791198730471,0.23306533813476563,-0.10504540801048279,-0.44835543632507324,0.10838143527507782
1778958570.0244753,-0.16121475219726564,-0.35865417480468764,0.437091064453125,-0.10824006795883179,-0.41321736574172974,0.11344651132822037
1778958570.0407722,-0.2507286071777344,-0.21046234130859354,0.5346881103515625,-0.10954201966524124,-0.38274693489074707,0.10919530689716339
1778958570.0563104,-0.4848417663574219,-0.03727249145507727,0.602347412109375,-0.1209474727511406,-0.3438125252723694,0.0886189341545105
1778958570.0730927,-0.20178039550781252,0.046702880859374574,0.4213737487792969,-0.11441213637590408,-0.2910071313381195,0.11153537780046463
1778958570.0889397,-0.10867401123046876,0.035326538085938,0.35640884399414063,-0.11498897522687912,-0.26086974143981934,0.1370127648115158
1778958570.1072855,0.047900390625000004,0.003442840576171946,0.4309538269042969,-0.1142810583114624,-0.1918986439704895,0.15980181097984314
1778958570.1278005,-0.02185455322265625,-0.031734008789062074,0.5869294738769532,-0.11962181329727173,-0.12978574633598328,0.13908684253692627
1778958570.1485062,-0.11555969238281251,0.1431024169921873,0.6135740661621094,-0.09869176894426346,-0.052710868418216705,0.15770955383777618
1778958570.1683025,0.082628173828125,0.4312532043457029,0.4722679138183594,-0.03749087080359459,0.01293063536286354,0.17270831763744354
1778958570.1888747,0.27692413330078125,0.5096900939941413,0.01526824951171875,0.05423932522535324,0.058603983372449875,-0.06932412832975388
1778958570.2089155,0.6141728210449219,0.24773483276367259,-1.3452525329589844,0.10069809854030609,0.03471854329109192,-0.14685218036174774
1778958570.2288833,0.48379394531250003,0.37062927246093835,-1.6874409484863282,0.020664643496274948,-0.06528235226869583,0.035422373563051224
1778958570.251396,0.31404693603515627,-0.4990621948242193,0.12349319458007812,-0.13200639188289642,-0.04241473600268364,0.049709104001522064
1778958570.2700396,0.6953041076660157,-0.7274871826171871,1.1301498413085938,-0.06339775770902634,0.06444179266691208,0.02157355099916458
1778958570.2891452,0.7899073791503907,-0.5462141418457023,1.3970448303222658,0.011065821163356304,0.11889836937189102,0.05400152876973152
1778958570.3095713,0.7174580383300782,-0.08128097534179624,0.9469308471679688,0.005463988520205021,0.19639718532562256,0.17558632791042328
1778958570.3313768,0.3896397399902344,0.10148895263671953,0.20267852783203125,-0.07657541334629059,0.2681315541267395,0.22833473980426788
1778958570.3515317,0.35625915527343754,0.4342469787597665,-0.44307861328125003,-0.04724488779902458,0.36565765738487244,0.1609514057636261
1778958570.370885,0.5599855041503906,0.3712280273437507,-0.7442523193359375,-0.051238641142845154,0.3741920292377472,0.1142694503068924
1778958570.3907692,0.5752537536621094,0.4598437499999992,-0.6183641052246094,-0.07670118659734726,0.3523719310760498,0.1321491301059723
1778958570.4105127,0.5981561279296875,0.17528549194335952,-0.4878355407714844,-0.07137765735387802,0.3768151104450226,0.0880676656961441
1778958570.432255,0.6707551574707031,0.04191284179687571,-0.37137771606445313,-0.0408945232629776,0.4058683514595032,0.030312329530715942
1778958570.4537797,0.8939410400390625,0.1333726501464838,-0.20552261352539064,-0.02027466893196106,0.3930021822452545,0.07046744227409363
1778958570.4731953,0.9648934936523438,0.16106506347656335,-0.32572265625,-0.036643851548433304,0.38141924142837524,0.141738623380661
1778958570.4936728,0.8023315429687501,0.028889923095702486,-0.5043013000488281,-0.047231316566467285,0.38804465532302856,0.18428504467010498
1778958570.5149672,0.8622070312500001,-0.04161346435546953,-0.5237608337402344,-0.06783193349838257,0.37639084458351135,0.22899581491947174
1778958570.5343325,1.0674302673339844,-0.34353561401367116,-0.4640350341796875,-0.08173489570617676,0.34648990631103516,0.250624418258667
1778958570.5660834,1.2204121398925782,-0.5391787719726562,-0.2496807861328125,-0.0602080337703228,0.31715866923332214,0.2516944706439972
1778958570.5859349,1.2671150207519533,-0.6065386962890624,-0.25192611694335937,-0.046523384749889374,0.23888544738292694,0.22421780228614807
1778958570.6063392,1.2606784057617189,-0.5078938293457025,-0.37092864990234375,0.007585193961858749,0.20395468175411224,0.21245063841342926
1778958570.6259089,1.1478131103515625,-0.4652325439453122,-0.3975732421875,0.06579097360372543,0.18961450457572937,0.16700145602226257
1778958570.6452942,1.350641326904297,-0.44577301025390703,-0.33171020507812504,0.08532232791185379,0.2177129089832306,0.1297840178012848
1778958570.6652014,1.5271243286132814,-0.38963973999023516,-0.20582199096679688,0.07984420657157898,0.23287874460220337,0.12229491770267487
1778958570.690747,1.787882080078125,-0.37766464233398445,-0.0383203125,0.058343708515167236,0.22445960342884064,0.10394761711359024
1778958570.7119536,1.8696121215820314,-0.4460723876953132,0.008232879638671876,0.05635466054081917,0.2137281894683838,0.08898412436246872
1778958570.7345738,1.901346130371094,-0.30267059326171797,0.041912841796875,0.04359951987862587,0.22303937375545502,0.07636365294456482
1778958570.7538736,1.8949095153808595,-0.051343231201171236,0.10253677368164063,0.03172508627176285,0.22438885271549225,0.08473801612854004
1778958570.775811,1.9426602172851564,0.014519805908202343,0.15881973266601562,0.025384895503520966,0.25281375646591187,0.09904635697603226
1778958570.7992246,2.1514759826660157,-0.05209167480468757,0.2165995788574219,0.022238971665501595,0.24700531363487244,0.10750210285186768
1778958570.8186092,2.1236338806152344,-0.21734802246093743,0.2998265075683594,0.04911718890070915,0.2297448217868805,0.09379246830940247
1778958570.8362699,1.9666104125976565,-0.09894424438476612,0.16360977172851562,0.025611799210309982,0.21851880848407745,0.15417993068695068
1778958570.8539085,2.11480224609375,-0.07604187011718722,-0.0335302734375,0.002354677766561508,0.15482914447784424,0.18390479683876038
1778958570.8718438,2.2180874633789065,-0.424367523193359,-0.1824705505371094,0.04975102096796036,0.14654314517974854,0.15658020973205566
1778958570.8906045,1.701511688232422,-0.5391787719726562,0.1279838562011719,0.09478787332773209,0.2050783783197403,0.12356957793235779
1778958570.9147396,1.8004559326171876,-0.33156051635742223,0.16795074462890625,0.13438761234283447,0.1693418323993683,0.1715053766965866
1778958570.9340935,2.222278747558594,-0.4517605590820306,0.02604583740234375,0.16610611975193024,0.09723284095525742,0.1794879287481308
1778958570.9525135,1.6085549926757814,-0.6277944946289065,0.027393035888671875,0.16631419956684113,0.12403795123100281,0.10683193057775497
1778958570.973673,1.337468719482422,-0.3439846801757813,0.038020935058593754,0.15387621521949768,0.12400545924901962,0.10246667265892029
1778958570.9930477,1.7272581481933595,-0.24803421020507876,0.08412506103515625,0.19473397731781006,0.06728597730398178,0.07488402724266052
1778958571.0123756,1.6063096618652344,-0.4863386535644523,0.26105712890625,0.1959025263786316,0.07393206655979156,-0.017823191359639168
1778958571.0317187,1.5510745239257813,-0.45655059814453125,0.28410919189453127,0.18331900238990784,0.047766804695129395,-0.01017248909920454
1778958571.051555,1.749561767578125,-0.5149291992187504,0.18172210693359375,0.19885756075382233,0.0016122492961585522,-0.014453524723649025
1778958571.0703528,1.5964302062988283,-0.5129832458496093,0.2656974792480469,0.18081404268741608,-0.022907257080078125,-0.09666962921619415
1778958571.0882745,1.4377601623535157,-0.30267059326171797,0.38814285278320315,0.15046672523021698,-0.040836624801158905,-0.14326344430446625
1778958571.1080625,1.5962805175781252,-0.1866618347167961,0.4842430114746094,0.12125849723815918,-0.07168668508529663,-0.15154002606868744
1778958571.127485,1.7730628967285158,-0.33679962158203125,0.5457650756835938,0.07262790948152542,-0.11488387733697891,-0.165202334523201
1778958571.1499643,1.6600479125976564,-0.5276527404785156,0.5215155029296875,0.04063389450311661,-0.1329747438430786,-0.17936591804027557
1778958571.168791,1.7333953857421875,-0.5481600952148433,0.5325924682617188,0.002870675176382065,-0.17453595995903015,-0.1311047375202179
1778958571.1902769,1.9513421630859376,-0.505648498535157,0.5334906005859376,-0.03918669745326042,-0.24468772113323212,-0.11209803074598312
1778958571.2101138,1.7980609130859375,-0.17887802124023366,0.6924600219726563,-0.11836612969636917,-0.3101440966129303,-0.20856007933616638
1778958571.2322636,1.6040643310546876,0.06571334838867138,0.4764591979980469,-0.1762804239988327,-0.35055696964263916,-0.25666290521621704
1778958571.2510087,1.5396981811523438,-0.1212478637695309,0.15612533569335937,-0.16560329496860504,-0.35487625002861023,-0.24059712886810303
1778958571.272706,1.5395484924316407,-0.27003845214843736,0.14265335083007813,-0.13599181175231934,-0.33831122517585754,-0.23651987314224243
1778958571.2943556,1.4124627685546876,0.30955627441406186,0.6643185424804687,-0.13812918961048126,-0.30713674426078796,-0.24838398396968842
1778958571.317378,1.4682966613769532,1.2195140075683586,0.57240966796875,-0.1524045467376709,-0.30416563153266907,-0.22331565618515015
1778958571.337482,1.4352154541015625,0.8711883544921868,-0.35521133422851564,-0.039989642798900604,-0.2951936721801758,-0.13778822124004364
1778958571.360049,1.2639715576171875,0.05927673339843764,-0.9789642333984375,0.07457643002271652,-0.24083317816257477,-0.10136198252439499
1778958571.381623,1.413959655761719,-0.028590545654296307,-0.6595285034179688,0.09806244820356369,-0.2546307146549225,-0.12527424097061157
1778958571.4064035,1.3729449462890626,-0.1386117553710946,-0.3445834350585938,-0.016460809856653214,-0.3164755702018738,-0.14305485785007477
1778958571.491065,1.2457095336914064,0.18037490844726634,-0.908909912109375,0.07756441086530685,-0.17854225635528564,-0.235613614320755
1778958571.510416,1.2020004272460938,-0.16136444091796953,-1.0470726013183593,0.09477529674768448,-0.11123235523700714,-0.21905164420604706
1778958571.5274353,1.162781982421875,-0.3400927734374992,-0.9340576171875,0.07534376531839371,-0.07157494127750397,-0.1823505461215973
1778958571.546975,1.1264076232910156,-0.5815406799316403,-0.7957452392578125,0.062477678060531616,-0.04648952931165695,-0.15490248799324036
1778958571.5726364,0.899329833984375,-0.6258485412597654,-0.7421566772460938,0.11773815006017685,-0.01296650804579258,-0.10570079833269119
1778958571.5902054,0.7177574157714844,-0.5460644531250001,-0.7981402587890626,0.14153622090816498,0.0012846705503761768,-0.08935275673866272
1778958571.6116889,0.41388931274414065,-0.3212319946289064,-0.8469387817382813,0.11293914914131165,0.0203056912869215,-0.10198882967233658
1778958571.6323369,0.43499542236328126,-0.28366012573242116,-0.96998291015625,0.09252328425645828,0.0198841355741024,-0.11864906549453735
1778958571.6546552,0.28156448364257813,-0.20791763305664013,-1.1669732666015626,0.02563120238482952,0.01776954159140587,-0.08369719982147217
1778958571.6767879,0.15013778686523438,-0.1607656860351554,-1.1567944335937501,-0.03885958343744278,0.015201524831354618,-0.09050294011831284
1778958571.698551,0.0580792236328125,-0.280067596435547,-1.1886781311035157,-0.053200431168079376,0.02249361202120781,-0.12956082820892334
1778958571.723589,-0.052690429687500005,-0.2814147949218757,-1.1283535766601562,-0.03532944247126579,0.060957081615924835,-0.13439323008060455
1778958571.7444968,-0.2597099304199219,-0.1562750244140627,-0.7430548095703126,-0.03443052992224693,0.12457632273435593,-0.09099637717008591
1778958571.7630394,-0.239501953125,-0.13097763061523438,-0.6866221618652344,-0.04391925781965256,0.1451042890548706,-0.08440403640270233
1778958571.7831266,-0.18770965576171875,-0.07978408813476534,-0.7274871826171876,-0.014477811753749847,0.18050207197666168,-0.07981381565332413
1778958571.8058233,-0.23052062988281252,-0.09864486694335994,-0.6593788146972657,-0.013851089403033257,0.21634463965892792,-0.05996096879243851
1778958571.832225,-0.14938934326171877,0.25941055297851534,-0.46253814697265627,-0.015986356884241104,0.2399429827928543,-0.059917595237493515
1778958571.8521006,-0.15343093872070312,0.2528242492675776,-0.5465135192871095,-0.006321072578430176,0.247115820646286,-0.06875527650117874
1778958571.8737898,-0.22558090209960938,0.005837860107421378,-0.801134033203125,0.005327736027538776,0.27640190720558167,-0.06492215394973755
1778958571.8938594,-0.2549198913574219,-0.18980529785156186,-0.8672964477539062,-0.025698503479361534,0.2710997760295868,-0.07961831986904144
1778958571.9166653,-0.15283218383789063,-0.3115022277832029,-0.6357279968261719,0.031070638447999954,0.2820988595485687,-0.061497628688812256
1778958571.9366903,-0.08322692871093751,-0.3143463134765625,-0.44607238769531254,-0.014976867474615574,0.24981047213077545,-0.025649843737483025
1778958573.1326785,1.6426840209960938,-0.12948074340820348,-0.25042922973632814,0.05377471446990967,0.11315295845270157,0.05384155735373497
1778958573.1544583,1.7188755798339845,-0.30162277221679723,-0.04146377563476563,0.06318151950836182,0.15496760606765747,0.03846871107816696
1778958573.2087998,1.6970210266113281,-0.48229705810546797,0.08801696777343751,0.06696190685033798,0.1545957326889038,0.01714009791612625
1778958573.2302353,1.67890869140625,-0.48259643554687415,0.2507286071777344,0.06102994084358215,0.04597073048353195,-0.06445184350013733
1778958573.250685,1.7116905212402345,-0.3085084533691411,0.19190093994140625,0.03358585759997368,-0.018457992002367973,-0.09670835733413696
1778958573.2698424,1.5465838623046875,-0.3092568969726557,0.20312759399414063,5.6274235248565674e-05,-0.049771130084991455,-0.13621896505355835
1778958573.2960813,1.7333953857421875,-0.3592529296875,0.2851570129394531,-0.047794148325920105,-0.12906433641910553,-0.18132762610912323
1778958573.3150988,1.8154248046875001,-0.46044250488281335,0.501756591796875,-0.1434658169746399,-0.2097172886133194,-0.23942449688911438
1778958573.3356826,1.788929901123047,-0.3815565490722648,0.48618896484375,-0.1655532568693161,-0.2552756369113922,-0.2439877986907959
1778958573.354613,1.9633172607421876,-0.3200344848632817,0.40116577148437504,-0.17780500650405884,-0.3006265461444855,-0.23855894804000854
1778958573.3738987,1.8383271789550781,-0.3405418395996094,0.3933819580078125,-0.20142650604248047,-0.3212242126464844,-0.2406923770904541
1778958573.3910823,1.951791229248047,-0.22647903442382855,0.305364990234375,-0.2013782411813736,-0.35650500655174255,-0.22305268049240112
1778958573.4158332,1.760189666748047,-0.2857557678222662,0.39577697753906255,-0.21048326790332794,-0.3531668186187744,-0.23232103884220123
1778958573.4350235,1.755399627685547,-0.1510359191894537,0.5090913391113282,-0.22598430514335632,-0.3773001730442047,-0.21733936667442322
1778958573.4555838,1.7462686157226563,-0.08666976928710923,0.6652166748046875,-0.24938786029815674,-0.37462183833122253,-0.21544966101646423
1778958573.4759147,1.6078065490722657,0.4710704040527336,0.7095245361328125,-0.25311216711997986,-0.39507293701171875,-0.2023591697216034
1778958573.4956038,1.5850538635253908,0.9759704589843743,0.18651214599609375,-0.21866124868392944,-0.40993833541870117,-0.13303177058696747
1778958573.9337013,1.3498928833007813,0.25387207031250014,-0.5933660888671876,-0.13959157466888428,-0.3759392201900482,-0.07080459594726562
1778958574.1109273,0.50055908203125,-0.6068380737304686,0.13382171630859377,0.035766929388046265,0.7103652954101562,0.02977636829018593
1778958574.132406,0.49756530761718754,-0.44996429443359354,0.12244537353515626,-0.007123393472284079,0.6842694878578186,0.032018810510635376
1778958574.1557674,0.5056484985351563,-0.03412902832031328,0.19953506469726565,0.06450556218624115,0.699811577796936,0.04261653497815132
1778958574.1780853,0.5107379150390625,-0.02484832763671818,0.26764343261718754,-0.005258726421743631,0.6991965174674988,0.009315064176917076
1778958574.1997619,0.6613247680664063,-0.1851649475097652,0.23875350952148439,0.010433502495288849,0.7145189642906189,-0.01990802213549614
1778958574.222483,0.6894662475585938,-0.3113525390625007,0.3941304016113281,0.059694163501262665,0.7458264827728271,0.02405189909040928
1778958574.2411275,0.623902587890625,-0.3128494262695316,0.6381230163574219,0.07151775062084198,0.7858225703239441,0.0302139762789011
1778958574.261542,0.6436614990234375,-0.07738906860351591,0.6679110717773438,0.06747447699308395,0.8287543654441833,0.009957443922758102
1778958574.2821603,0.5659730529785156,0.015717315673828836,0.42107437133789066,0.11054295301437378,0.8743149638175964,0.027317699044942856
1778958574.3056915,0.4249662780761719,-0.16226257324218807,0.3629951477050781,0.1742599904537201,0.9636477828025818,0.06082357466220856
1778958574.3256793,0.2625540161132813,-0.35595977783203203,0.7044351196289063,0.17519955337047577,0.9778746962547302,0.03170749917626381
1778958574.3474405,0.2528242492675781,-0.35700759887695277,0.8286767578125,0.1732502281665802,0.9526514410972595,0.04904833436012268
1778958574.3681817,0.36134857177734375,-0.2872526550292971,0.8446934509277344,0.16867424547672272,0.9188276529312134,0.05988234281539917
1778958574.393285,0.2597099304199219,-0.39697448730468743,0.8381071472167969,0.1616254448890686,0.8854127526283264,0.06890829652547836
1778958574.4145703,0.11061996459960938,-0.3740721130371085,0.7917036437988282,0.14516831934452057,0.8672227263450623,0.10036291182041168
1778958574.4359176,0.02844085693359375,-0.07559280395507884,0.9211843872070313,0.10557759553194046,0.8118715882301331,0.06244490295648575
1778958574.4596229,-0.06721023559570313,0.00029937744140617895,0.7806266784667969,0.09095649421215057,0.7892432808876038,0.023369913920760155
1778958574.4785686,-0.09071136474609376,0.03742218017578125,0.7701484680175782,0.10969729721546173,0.7931655049324036,0.029647793620824814
1778958574.4986782,0.13157638549804687,0.239501953125,0.8770262145996094,0.13448145985603333,0.8024293780326843,0.029367610812187195
1778958574.5195854,0.28650421142578125,0.32078292846679624,1.06578369140625,0.14590124785900116,0.79311603307724,-0.008535021916031837
1778958574.5384614,0.2962339782714844,0.7340734863281249,1.0710227966308594,0.14840734004974365,0.7864620089530945,-0.04894902929663658
1778958574.5578237,0.12663665771484375,1.4694941711425784,-0.06750961303710938,0.10260777175426483,0.6993248462677002,-0.014911940321326256
1778958574.5758436,0.07095245361328126,1.2578343200683602,-1.7763560485839844,0.24489641189575195,0.6172116994857788,0.07264508306980133
1778958574.5961995,-0.3980223083496094,1.491498413085937,-1.2364288330078126,0.29252180457115173,0.6442888975143433,-0.007185561116784811
1778958574.6173542,0.062120819091796876,1.4364129638671876,0.3638932800292969,0.27635377645492554,0.6735534071922302,-0.11231499910354614
1778958574.638279,1.033450927734375,0.5777984619140621,1.1808943176269533,0.3779124319553375,0.723641574382782,-0.06630108505487442
1778958574.659857,1.2519964599609377,-0.49846343994140696,0.9586065673828126,0.27197980880737305,0.7772451043128967,0.03753123804926872
1778958574.7187476,1.1090437316894532,-0.8991801452636725,0.24519012451171876,0.11885150521993637,0.8286616206169128,0.1760474443435669
1778958574.7398326,1.114731903076172,-0.6105802917480467,-1.9690054321289063,0.16311746835708618,0.7389565706253052,0.18406055867671967
1778958574.760753,1.2409194946289064,-0.9485774230957027,-2.135309600830078,0.2078450322151184,0.7315406203269958,0.14426514506340027
1778958574.7830465,1.8872753906250002,-1.2693603515625007,-1.5834072875976564,0.1601731777191162,0.6596376299858093,0.11401833593845367
1778958574.8064077,2.166295166015625,-1.1099418640136722,-1.1689192199707032,0.08174073696136475,0.5732225179672241,0.0858386978507042
1778958574.8255637,2.362237701416016,-0.5417234802246096,-0.9862989807128907,0.02148423343896866,0.47730451822280884,0.11390945315361023
1778958574.8465142,2.109862518310547,0.04505630493164148,-0.9982740783691407,-0.009667898528277874,0.4190901517868042,0.14198341965675354
1778958576.0022767,0.32482452392578126,-0.016016693115235014,0.9087602233886719,-0.02269705757498741,0.7136356830596924,0.11221572011709213
1778958576.0318663,0.449066162109375,-0.144299926757812,0.9795629882812501,-0.041201151907444,0.7511175274848938,0.157378688454628
1778958576.0524154,0.14684463500976563,-0.2935395812988286,0.899329833984375,-0.03762025758624077,0.7979603409767151,0.18503309786319733
1778958576.0689728,0.19504440307617188,-0.34353561401367116,0.9455836486816407,-0.013268658891320229,0.8332040309906006,0.20390543341636658
1778958576.0850387,0.12903167724609377,-0.37227584838867145,1.1585906982421876,-0.013406418263912201,0.8993492126464844,0.20879286527633667
1778958576.104334,-0.010927276611328125,-0.30790969848632876,1.24541015625,-0.028295297175645828,0.9566404223442078,0.20859655737876892
1778958576.1247222,-0.09325607299804688,-0.19354751586913999,1.1253598022460938,-0.010798072442412376,1.0051792860031128,0.2215682715177536
1778958576.1440213,0.14400054931640627,-0.2218386840820319,0.9671388244628907,0.008691594935953617,1.0070871114730835,0.2548981010913849
1778958576.164625,0.17393829345703127,-0.4123924255371101,1.0136920166015626,-0.002397250384092331,1.0133873224258423,0.23901227116584778
1778958576.1860905,0.06571334838867188,-0.2902464294433589,1.265917510986328,-0.02262222394347191,1.0373491048812866,0.2081686109304428
1778958576.205869,0.13247451782226563,-0.08158035278320241,1.2732522583007813,-0.03041926771402359,1.058915376663208,0.2112797498703003
1778958576.2278137,0.07080276489257813,-0.07229965209960909,1.1346405029296875,0.062212489545345306,1.1071887016296387,0.2281300276517868
1778958576.2480512,0.05643264770507813,0.11481124877929716,1.1407777404785158,0.07662925124168396,1.1495829820632935,0.26241055130958557
1778958576.2682679,0.11316467285156251,-0.07424560546875014,1.0258168029785157,-0.025610022246837616,1.157895565032959,0.2545705735683441
1778958576.2875776,-0.053438873291015626,-0.13501922607421868,1.107846221923828,0.014075522311031818,1.2360988855361938,0.23394504189491272
1778958576.3074014,0.13516891479492188,0.762514343261719,1.2952565002441407,0.12206064909696579,1.281977891921997,0.19512680172920227
1778958576.3278425,0.4572990417480469,1.8377284240722656,0.5357359313964845,0.32332032918930054,1.2528146505355835,0.1199205070734024
1778958576.3491905,0.7330256652832031,0.539029083251954,-1.4419514465332033,0.5296944975852966,1.1793938875198364,0.16504991054534912
1778958576.3695881,0.49756530761718754,0.07978408813476534,-1.3477972412109376,0.35717499256134033,1.088156819343567,0.16949711740016937
1778958576.387711,0.9523196411132813,0.041463775634765554,-0.05673202514648438,0.1032797321677208,0.9953014850616455,0.11026577651500702
1778958576.4075007,1.1509565734863283,-0.13052856445312422,1.1518547058105468,0.1370973140001297,1.0551397800445557,0.05087520182132721
1778958576.4276686,0.7960446166992188,-0.06885681152343714,1.4926959228515626,0.28317248821258545,1.2548909187316895,0.10943616181612015
1778958576.4481535,0.5725593566894531,-0.0669108581542961,1.0183323669433595,0.35472866892814636,1.447133183479309,0.24065600335597992
1778958576.4667635,0.9389973449707032,0.011526031494140554,0.15088623046875002,0.3535725772380829,1.5185819864273071,0.3483179807662964
1778958576.48862,1.3733940124511719,-0.03487747192382784,-0.46418472290039064,0.2614167034626007,1.4510773420333862,0.3589980900287628
1778958576.5061855,1.375938720703125,-0.37511993408203104,-0.65863037109375,0.19614814221858978,1.3802685737609863,0.25409403443336487
1778958576.526041,1.2530442810058595,-0.42242156982421797,-0.6551875305175782,0.22534266114234924,1.3771417140960693,0.18204036355018616
1778958576.5482974,1.1386820983886718,-0.269589385986329,-0.4339476013183594,0.29223108291625977,1.442583680152893,0.18107996881008148
1778958576.568717,1.1752061462402343,-0.07604187011718722,-0.20806732177734377,0.3214876055717468,1.526003122329712,0.20146524906158447
1778958576.586959,1.4563215637207032,-0.045655059814453836,-0.22632934570312502,0.331635057926178,1.5911535024642944,0.21505233645439148
1778958576.6047695,1.7262103271484377,-0.16660354614257855,-0.37781433105468754,0.31898051500320435,1.635737419128418,0.22726458311080933
1778958576.6252441,1.8215620422363281,-0.4041595458984375,-0.5037025451660156,0.3067092299461365,1.689173936843872,0.2365897297859192
1778958576.64696,1.7709672546386719,-0.5125341796874991,-0.5164260864257812,0.3025818467140198,1.7548807859420776,0.23069579899311066
1778958576.6646252,1.781595153808594,-0.5295986938476567,-0.53887939453125,0.3308257758617401,1.7847851514816284,0.20359741151332855
1778958576.683536,2.0386106872558596,-0.505648498535157,-0.44442581176757817,0.3469025790691376,1.7937570810317993,0.20516249537467957
1778958576.714349,2.062860260009766,-0.19444564819335852,-0.23246658325195313,0.30906370282173157,1.8139806985855103,0.23180846869945526
1778958576.7345207,1.9478993225097658,-0.1184037780761713,-0.24863296508789065,0.29718467593193054,1.8487764596939087,0.20201699435710907
1778958576.755048,1.9178118896484375,-0.1580712890624998,-0.37661682128906254,0.3213033378124237,1.882354497909546,0.17900922894477844
1778958576.7741282,2.0851638793945315,-0.28231292724609425,-0.43349853515625003,0.32253292202949524,1.8697688579559326,0.18745963275432587
1778958576.7910054,2.3068528747558594,-0.30581405639648374,-0.34323623657226565,0.4005691409111023,1.8627654314041138,0.2197662889957428
1778958576.81531,2.125879211425781,-0.41463775634765554,-0.3823049926757813,0.2967509329319,1.8600313663482666,0.1992121785879135
1778958576.8370738,2.0853135681152346,-0.3647914123535152,-0.3543132019042969,0.2355089634656906,1.8515690565109253,0.20457856357097626
1778958576.857585,2.3572979736328126,-0.19085311889648438,-0.25237518310546875,0.2644658088684082,1.8161656856536865,0.23342372477054596
1778958576.8772237,2.115999755859375,-0.25506958007812486,-0.1383123779296875,0.28133097290992737,1.8136756420135498,0.21711423993110657
1778958576.895773,1.9892134094238283,-0.21630020141601491,-0.04460723876953125,0.25879427790641785,1.7976012229919434,0.2111188769340515
1778958576.9155316,1.9514918518066406,-0.19399658203125014,-0.130528564453125,0.20529155433177948,1.7799159288406372,0.19785161316394806
1778958576.9416964,1.9880158996582031,-0.10103988647460938,-0.1598675537109375,0.19151340425014496,1.7633788585662842,0.16951565444469452
1778958576.96134,1.9354751586914063,-0.26060806274414006,-0.16510665893554688,0.19907855987548828,1.726932168006897,0.1104205995798111
1778958576.982615,2.125879211425781,-0.4493655395507812,-0.10433303833007813,0.20581579208374023,1.6776574850082397,0.08901700377464294
1778958577.0058508,1.9910096740722658,-0.5119354248046868,0.06496490478515625,0.1860988736152649,1.6376372575759888,0.05434884503483772
1778958577.0273144,1.8907182312011719,-0.3990701293945307,0.2543211364746094,0.17537038028240204,1.6188008785247803,0.026845578104257584
1778958577.0492504,2.159409484863281,-0.3483256530761718,0.3215313720703125,0.11548379808664322,1.5427088737487793,-0.016851600259542465
1778958577.070153,2.22497314453125,-0.44667114257812557,0.35102005004882814,0.07889071106910706,1.4976801872253418,-0.06680716574192047
1778958577.0903697,2.0338206481933594,-0.3496728515625005,0.5140310668945313,0.04165206849575043,1.4837204217910767,-0.07776258885860443
1778958577.1121156,2.07169189453125,-0.23860382080078146,0.5686674499511719,0.021596651524305344,1.4262620210647583,-0.07386907190084457
1778958577.1310296,2.2745201110839846,-0.36808456420898494,0.46059219360351566,0.012407881207764149,1.3677690029144287,-0.08586874604225159
1778958577.1505182,2.0947439575195315,-0.5029541015624996,0.41269180297851565,-0.017761390656232834,1.3094059228897095,-0.06992953270673752
1778958577.1684759,2.009720764160156,-0.5312452697753898,0.4620890808105469,-0.029250741004943848,1.2447292804718018,-0.06064673513174057
1778958577.1859174,2.0026853942871097,-0.5379812622070315,0.5056484985351563,-0.02963636815547943,1.2098290920257568,-0.07289540767669678
1778958577.2018154,2.0050804138183596,-0.46762756347656165,0.6354286193847657,-0.012464266270399094,1.141889214515686,-0.12377514690160751
1778958577.2180977,2.040257263183594,-0.4177812194824213,0.6520440673828125,0.018062785267829895,1.0862666368484497,-0.15149319171905518
1778958577.2352078,2.0645068359375003,-0.4079017639160156,0.6439608764648438,0.024557072669267654,1.0529175996780396,-0.14613664150238037
1778958577.2515633,2.1444406127929687,-0.4833448791503905,0.609532470703125,0.021009163931012154,0.9735825657844543,-0.1556413471698761
1778958577.2698944,2.1875509643554687,-0.5435197448730467,0.6167175292968751,0.008982690051198006,0.8858441710472107,-0.1592937409877777
1778958577.2986479,2.108814697265625,-0.26315277099609347,0.8744815063476563,-0.04504627734422684,0.7565458416938782,-0.163138747215271
1778958578.4556057,0.6617738342285157,-0.14400054931640582,0.9836045837402344,0.04961676150560379,0.4706703722476959,0.17829054594039917
1778958578.4763508,0.5092410278320313,-0.34069152832031335,1.2258009338378908,0.010988431982696056,0.43745777010917664,0.18252374231815338
1778958578.4986448,0.2606080627441406,-0.473615112304687,1.2898677062988282,-0.002809894736856222,0.4441814422607422,0.20216958224773407
1778958578.5233037,0.5620811462402344,-0.27722351074218743,1.30049560546875,0.018567238003015518,0.39859941601753235,0.27600574493408203
1778958578.5476027,0.6090834045410156,-0.3617976379394534,1.2258009338378908,0.03673793375492096,0.3691219389438629,0.276624858379364
1778958578.5692842,0.39577697753906255,-0.2615061950683586,1.3612692260742187,0.06426703929901123,0.34581026434898376,0.3121432662010193
1778958578.5903237,0.2808160400390625,-0.09879455566406214,1.407223663330078,0.06098194420337677,0.3549802005290985,0.31240764260292053
1778958578.6093192,0.21151016235351563,0.021106109619140057,1.342408447265625,0.06609740853309631,0.3839726150035858,0.2471444457769394
1778958578.6283178,0.42152343750000004,-0.051193542480469034,1.1945159912109375,0.0862237885594368,0.3839462995529175,0.18948383629322052
1778958578.9511666,0.5959107971191406,-0.12693603515625007,1.129251708984375,0.12259570509195328,0.3440918028354645,0.2012082189321518
1778958579.1671422,2.1975801086425784,-0.6471043395996094,-0.1293310546875,-0.10019786655902863,0.16069021821022034,0.10551159083843231
1778958579.188294,1.9592756652832033,-0.7454498291015632,-0.22468276977539064,-0.10895335674285889,0.10665600001811981,0.07023680210113525
1778958579.3044956,1.9934046936035157,-0.3426374816894526,-0.17468673706054688,0.04457031562924385,0.029196565970778465,-0.0030194649007171392
1778958579.3245077,2.059417419433594,-0.4233197021484383,-0.08831634521484376,0.06316180527210236,0.03505061939358711,-0.03295156732201576
1778958579.3432157,1.9823277282714844,-0.43604324340820355,-0.044756927490234376,-0.0013533039018511772,0.033233437687158585,-0.04117411747574806
1778958579.3783824,1.9895127868652345,-0.45535308837890653,-0.030087432861328128,-0.013708677142858505,0.023448975756764412,-0.04389263689517975
1778958579.3999915,1.906285858154297,-0.4203259277343747,0.16495697021484376,-0.020955484360456467,0.04200474172830582,-0.057572513818740845
1778958579.4190004,1.888472900390625,-0.48514114379882756,0.26240432739257813,-0.012504128739237785,0.060293011367321014,-0.07182733714580536
1778958579.4391773,1.9591259765625002,-0.35311569213867244,0.3691323852539063,0.008479151874780655,0.04382280260324478,-0.06120143458247185
1778958579.4637926,1.7025595092773438,-0.3468287658691409,0.5060975646972656,-0.041217364370822906,0.012729494832456112,-0.06683500111103058
1778958579.5161574,1.640289001464844,-0.5289999389648443,0.5138813781738282,-0.0949530228972435,-0.0633670762181282,-0.16512447595596313
1778958579.536809,1.1779005432128906,-0.31479537963867266,0.590372314453125,-0.11961952596902847,-0.06796599179506302,-0.18877799808979034
1778958579.5559897,1.071471862792969,-0.18486557006835902,0.5528004455566407,-0.10390442609786987,-0.1083112582564354,-0.1825259029865265
1778958579.5754023,1.324146423339844,-0.38993911743164134,0.48993118286132814,-0.06372186541557312,-0.14847691357135773,-0.2493773102760315
1778958579.8728466,1.2653187561035157,-0.3725752258300776,0.6583309936523438,-0.0419030636548996,-0.16813227534294128,-0.2967832386493683
1778958579.8934493,1.4123130798339845,0.31883697509765696,0.6445596313476563,0.01889963634312153,-0.4728570580482483,-0.20085611939430237
1778958579.9151652,1.4277310180664062,-0.3004252624511725,0.98914306640625,-0.027216259390115738,-0.4199206233024597,-0.13809145987033844
1778958579.9612334,0.9195378112792969,-1.0165361022949213,0.5656736755371095,-0.0635809600353241,-0.3061663508415222,-0.046822112053632736
1778958579.982443,0.8132588195800782,-0.6366261291503914,0.12948074340820312,-0.07726798951625824,-0.33488357067108154,0.02619512565433979
1778958580.0025358,0.5284011840820313,-0.43724075317382827,-0.4165837097167969,-0.10596487671136856,-0.3851197063922882,0.05540355294942856
1778958580.2825317,0.14400054931640627,0.05658233642578203,-0.8053253173828125,-0.04926254227757454,-0.4141215980052948,0.028008785098791122
1778958580.3041162,0.18770965576171875,-0.7276368713378911,0.40356079101562503,0.0619315430521965,-0.3416776955127716,-0.0332486629486084
1778958580.3317845,0.052241363525390626,-0.3800596618652339,0.4397854614257813,0.12330663204193115,-0.3161098062992096,0.007583606988191605
1778958580.3546414,-0.00868194580078125,-0.05792953491210895,0.42107437133789066,0.06941575556993484,-0.32782959938049316,0.03781578689813614
1778958580.3754344,0.07738906860351563,-0.09879455566406214,0.41119491577148437,0.013756006956100464,-0.3256732225418091,0.007853418588638306
1778958580.3966613,-0.0149688720703125,-0.09460327148437564,0.5382806396484375,-0.024751784279942513,-0.3010859191417694,0.008776189759373665
1778958580.418904,0.08592132568359376,-0.25911117553710916,0.6066883850097656,0.001432962715625763,-0.28535202145576477,0.03277674317359924
1778958580.4414115,0.15118560791015626,-0.40760238647460945,0.6804849243164063,0.025594860315322876,-0.2674558758735657,0.048625923693180084
1778958580.4619493,0.08577163696289063,-0.48244674682617195,0.7749385070800782,0.01607866771519184,-0.24824030697345734,0.08382174372673035
1778958580.4816992,-0.09490264892578125,-0.512234802246093,0.7611671447753907,0.0019555147737264633,-0.21272753179073334,0.12432147562503815
1778958580.5022566,-0.0748443603515625,-0.5165757751464852,0.8104147338867188,0.009772568941116333,-0.18489888310432434,0.16764234006404877
1778958580.5206065,-0.09385482788085937,-0.5201683044433594,0.9662406921386719,0.01871059089899063,-0.16142958402633667,0.1769559234380722
1778958580.5381532,-0.16480728149414064,-0.5084925842285148,1.1427236938476564,-0.06745641678571701,-0.14362609386444092,0.15867309272289276
1778958580.5593946,-0.18456619262695315,-0.37332366943359396,1.3976435852050781,-0.058488693088293076,-0.10849921405315399,0.15728138387203217
1778958580.57978,-0.19893630981445312,-0.13367202758788999,1.458417205810547,-0.14565414190292358,-0.10188746452331543,0.20408347249031067
1778958580.6002674,-0.14534774780273438,-0.2026785278320311,1.2602293395996094,-0.2412315011024475,-0.09461021423339844,0.1969793736934662
1778958580.6186543,0.017812957763671877,-0.07918533325195298,1.0761122131347656,-0.22359327971935272,-0.0747821182012558,0.19446200132369995
1778958580.6403034,0.15971786499023438,0.15163467407226605,1.0565029907226564,-0.20763050019741058,-0.060896240174770355,0.2319936603307724
1778958580.6585479,0.1734892272949219,0.09639953613281271,1.1789483642578125,-0.2145785689353943,-0.026894867420196533,0.2146703600883484
1778958580.6789114,0.5141807556152344,0.5099894714355475,1.2975018310546875,-0.2117103636264801,0.0005716979503631592,0.1385514885187149
1778958580.7014444,0.7813751220703126,1.7624349975585947,0.7661068725585938,-0.0630938708782196,-0.03024432435631752,0.021240485832095146
1778958580.7223926,0.9060658264160156,1.4391073608398433,-1.2147239685058595,0.15456418693065643,-0.11029556393623352,-0.017395569011569023
1778958580.7437575,0.13516891479492188,0.9907896423339846,-1.4894027709960938,0.07044808566570282,-0.1976216733455658,-0.03287240117788315
1778958580.7636633,-0.0532891845703125,1.0563533020019538,-0.2998265075683594,-0.04993753135204315,-0.21811343729496002,0.02020172029733658
1778958580.7853692,0.3555107116699219,1.1403286743164056,0.88855224609375,0.0585600845515728,-0.09538178145885468,0.07086413353681564
1778958580.8039515,0.4700225830078125,1.0229727172851568,0.890797576904297,0.14218732714653015,-0.04209032654762268,0.07557446509599686
1778958580.823154,0.5141807556152344,0.37646713256835973,0.5587879943847657,0.16322901844978333,0.02341674081981182,0.10785675048828125
1778958580.8424604,0.45999343872070314,-0.36015106201171854,0.28261230468750004,0.019987348467111588,-0.010448209941387177,0.14946070313453674
1778958580.871178,0.2644999694824219,-1.389560394287109,0.06825805664062501,-0.14628542959690094,-0.13270016014575958,0.11294950544834137
1778958580.8892128,0.02185455322265625,-1.3156141662597651,-0.17109420776367187,-0.13051532208919525,-0.1859641820192337,0.07801875472068787
1778958580.916527,0.002245330810546875,-0.4472698974609379,-0.6189628601074219,-0.058561623096466064,-0.22793418169021606,-0.009035507217049599
1778958580.94189,0.513731689453125,-0.2365081787109382,-0.6822811889648438,-0.06663956493139267,-0.26584410667419434,-0.09744997322559357
1778958580.9610655,1.1389814758300782,-0.37511993408203104,-0.6137237548828125,-0.09623891860246658,-0.2990643084049225,-0.1649578958749771
1778958580.982976,1.6384927368164064,-0.4793032836914062,-0.5502557373046876,-0.12083044648170471,-0.33434349298477173,-0.17268407344818115
1778958581.0046759,1.8185682678222657,-0.4722679138183601,-0.34398468017578127,-0.1824622005224228,-0.3842301666736603,-0.174838587641716
1778958581.025382,1.7958155822753907,-0.026494903564453054,-0.05987548828125,-0.23097269237041473,-0.3935144543647766,-0.16094908118247986
1778958581.3064735,1.5325131225585937,0.4038601684570313,0.17992584228515626,-0.23770783841609955,-0.3689391016960144,-0.10444634407758713
1778958581.3283198,0.9265731811523438,-0.4439767456054682,1.1174263000488283,-0.061877451837062836,-0.6626150012016296,-0.03300296887755394
1778958581.3523827,0.8641529846191407,-0.2826123046875004,1.137484588623047,-0.11194197088479996,-0.6625621914863586,-0.0670136883854866
1778958581.3734126,1.069376220703125,-0.41867935180663984,1.1993060302734375,-0.10187625139951706,-0.6871445775032043,-0.09172385185956955
1778958581.392532,0.87897216796875,-0.6015989685058596,1.362466735839844,-0.092896468937397,-0.699675977230072,-0.1464633196592331
1778958581.412895,0.8104147338867188,-0.5292993164062505,1.4015354919433594,-0.05258435755968094,-0.7055210471153259,-0.1522652506828308
1778958581.4336815,0.8779243469238281,-0.5266049194335931,1.4196478271484376,-0.03730302304029465,-0.7287375926971436,-0.14482294023036957
1778958581.4538138,0.8559201049804688,-0.5269042968749993,1.4554234313964844,-0.09295695275068283,-0.7731544971466064,-0.1805540919303894
1778958581.4732993,0.8379574584960938,-0.6168672180175783,1.4232403564453127,-0.13217543065547943,-0.7996305227279663,-0.22323453426361084
1778958581.491791,0.9024732971191407,-0.669108581542968,1.3801300048828127,-0.13109776377677917,-0.8298453092575073,-0.24494321644306183
1778958581.819625,1.0151889038085937,-0.6589297485351562,1.458417205810547,-0.12302595376968384,-0.8616800904273987,-0.27398356795310974
1778958582.2284954,-0.513731689453125,-0.2805166625976554,-0.10927276611328125,0.025824230164289474,-0.47056150436401367,-0.010945608839392662
1778958582.249481,-0.14415023803710938,-0.280067596435547,0.47196853637695313,0.029103614389896393,-0.5268588662147522,0.08430875837802887
1778958582.2725797,-0.15358062744140627,-0.29892837524413984,0.5287005615234375,-0.031432539224624634,-0.5070182085037231,0.14005018770694733
1778958582.2940729,-0.0975970458984375,-0.4414320373535148,0.7141648864746094,-0.0876411572098732,-0.45771291851997375,0.2020617127418518
1778958582.315639,0.05942642211914063,-0.5544470214843749,0.9795629882812501,-0.11257413029670715,-0.3572225868701935,0.2714143991470337
1778958582.3327262,0.09714797973632813,-0.49157775878906307,1.0394384765625,-0.11697527021169662,-0.3124913275241852,0.2892785966396332
1778958582.3521953,-0.03323089599609375,-0.38035903930664006,1.0515632629394531,-0.12478529661893845,-0.24537423253059387,0.3149670958518982
1778958582.3718462,-0.154478759765625,-0.33814682006835994,0.8773255920410157,-0.1151079535484314,-0.14760221540927887,0.3254838287830353
1778958582.3903112,-0.25312362670898436,-0.20133132934570241,0.8382568359375,-0.07913355529308319,-0.022025687620043755,0.3079559803009033
1778958582.4079683,0.047151947021484376,-0.07918533325195298,0.9509724426269531,-0.12988686561584473,0.028726810589432716,0.31468304991722107
1778958582.427645,0.4201762390136719,-0.2543211364746085,1.0127938842773438,-0.11961151659488678,0.04621279612183571,0.3285166919231415
1778958582.4469175,0.370030517578125,-0.24129821777343707,0.9145980834960938,-0.10982920974493027,0.08418741822242737,0.369617223739624
1778958582.465695,0.19399658203125,-0.026345214843750853,0.805924072265625,-0.10084834694862366,0.13362419605255127,0.35162273049354553
1778958582.4863656,0.2947370910644531,0.35431320190429716,1.076411590576172,-0.031851641833782196,0.1764112412929535,0.30409568548202515
1778958582.5080948,0.6712042236328125,1.8693127441406254,1.2350816345214843,-0.04200039058923721,0.09241239726543427,0.09551827609539032
1778958582.5318313,0.2782713317871094,1.9589762878417964,0.1945953369140625,0.07791213691234589,0.05051349103450775,-0.018873300403356552
1778958582.5515249,0.15402969360351562,0.808468780517579,-1.5401472473144533,0.3367307186126709,0.08486036956310272,-0.02538730576634407
1778958582.572654,0.033679962158203125,1.734443206787109,-1.1106903076171875,0.23716238141059875,-0.09444776177406311,0.08099236339330673
1778958582.601772,0.06795867919921875,0.9578581237792978,0.6583309936523438,0.08679869025945663,-0.12994682788848877,0.10738880187273026
1778958582.622743,0.17977615356445314,-0.3267704772949216,1.3150154113769532,0.22068706154823303,-0.005215737037360668,0.2674938142299652
1778958582.6412654,0.17917739868164062,-0.6197113037109379,1.3015434265136718,0.22685018181800842,0.03333800658583641,0.31308016180992126
1778958582.6609962,-0.07933502197265625,-0.8131091308593756,1.2852273559570313,0.12113578617572784,0.07175220549106598,0.29796403646469116
1778958582.6838348,-0.07574249267578126,-0.5240602111816415,0.5679190063476562,-0.053387317806482315,0.004175359848886728,0.2281833291053772
1778958582.7044203,-0.13142669677734375,-0.4312532043457029,-0.23516098022460938,-0.019670788198709488,-0.07400332391262054,0.10884792357683182
1778958582.7246556,0.014819183349609376,-0.15388000488281328,-0.810714111328125,0.03640888258814812,-0.13840095698833466,-0.0019012626726180315
1778958582.7441216,0.13397140502929689,0.07544311523437486,-0.8333171081542969,0.023734040558338165,-0.21748250722885132,-0.03150026872754097
1778958582.764626,0.48259643554687504,0.02724334716796939,-0.8536747741699219,-0.0035842186771333218,-0.3061924874782562,-0.04765555262565613
1778958583.833068,0.25102798461914066,-0.2161505126953127,-0.36164794921875004,-0.16165167093276978,-1.286852240562439,-0.14877231419086456
1778958583.894357,-0.26000930786132814,-0.46628036499023473,-0.417930908203125,-0.0923633873462677,-1.1585527658462524,-0.08476059883832932
1778958583.9187608,-0.346080322265625,-0.3826043701171873,-0.57240966796875,0.009791889227926731,-1.1836702823638916,-0.12894313037395477
1778958583.9411185,-0.3592529296875,-0.35461257934570334,-0.5269042968750001,0.039439499378204346,-1.2280265092849731,-0.13181142508983612
1778958583.962013,-0.7532336425781251,-0.2841091918945313,-0.4722679138183594,0.03964350372552872,-1.2496565580368042,-0.16198216378688812
1778958584.0877392,-0.6435118103027344,0.030386810302735157,-0.2656974792480469,0.017596401274204254,-1.306180715560913,-0.2551562488079071
1778958584.1304467,-0.3224295043945313,-0.013771362304687784,0.23261627197265627,0.04026224464178085,-1.1821908950805664,-0.18559107184410095
1778958584.1786375,-0.5749543762207031,0.008981323242187145,0.4122427368164063,0.026990877464413643,-1.0607017278671265,-0.11468752473592758
1778958584.2279177,-0.38993911743164067,-0.006885681152343892,0.12304412841796876,-0.03290870413184166,-0.9746914505958557,-0.07035869359970093
1778958584.2501051,-0.5246589660644532,0.12723541259765625,0.22303619384765627,-0.04783986508846283,-0.8609656095504761,-0.07550553232431412
1778958584.2721314,-0.6741979980468751,-0.2056723022460929,0.05044509887695313,-0.09001610428094864,-0.7867515683174133,-0.0709165632724762
1778958584.324333,-0.21016296386718752,-0.22887405395507798,0.6274951171875001,-0.04757067188620567,-0.6244711875915527,0.043199505656957626
1778958585.4178762,1.4790742492675781,-0.16660354614257855,0.33021331787109376,-0.18982170522212982,-0.9018218517303467,-0.00024375878274440765
1778958585.4425285,1.2826826477050781,-0.13022918701171804,0.2755769348144531,-0.17646479606628418,-0.9060602188110352,-0.02574222721159458
1778958585.4668226,1.4084211730957032,-0.26075775146484403,0.4381388854980469,-0.09839488565921783,-0.8987419009208679,-0.007539195939898491
1778958585.490581,1.4831158447265627,-0.23516098022460952,0.571212158203125,-0.15951304137706757,-0.9250806570053101,0.026643002405762672
1778958585.5130682,1.4374607849121095,-0.3562591552734382,0.6734495544433594,-0.20393036305904388,-0.9196673631668091,-0.03273599222302437
1778958585.5349047,1.2452604675292969,-0.1537303161621093,0.7032376098632813,-0.12567976117134094,-0.8535378575325012,-0.06114766001701355
1778958585.5534625,1.5269746398925783,-0.020806732177733878,0.5800437927246094,-0.05100008845329285,-0.8866683840751648,0.0068109226413071156
1778958585.5735345,1.5438894653320314,-0.38320312499999964,0.6012995910644532,-0.04714205116033554,-0.8720619082450867,-0.02492104470729828
1778958585.6004083,1.3006452941894533,-0.3496728515625005,0.5996530151367188,-0.08157504349946976,-0.8330510258674622,-0.03398407995700836
1778958585.6202705,1.8055453491210938,-0.15852035522460994,0.6667135620117188,-0.05737329646945,-0.865567684173584,0.026813756674528122
1778958585.6460743,1.8401234436035157,-0.45146118164062443,0.7396119689941406,-0.054678358137607574,-0.8625409007072449,-0.014913531020283699
1778958585.669184,1.388961639404297,-0.3171903991699221,0.75443115234375,-0.05715537816286087,-0.8073529601097107,-0.011376412585377693
1778958585.6935494,1.742227020263672,-0.16944763183593814,0.7036866760253907,-0.005696579813957214,-0.8006596565246582,0.01207263208925724
1778958585.716052,1.4760804748535157,-0.2914439392089836,0.6643185424804687,0.0136013925075531,-0.7284371852874756,-0.012049280107021332
1778958585.737101,1.565294952392578,-0.3555107116699219,0.8556207275390626,0.036123067140579224,-0.7241092324256897,0.0071161952801048756
1778958585.7567902,1.5385006713867189,-0.5215155029296881,1.0886860656738282,0.010010424070060253,-0.6913695335388184,-0.02895757183432579
1778958585.7769542,1.2250524902343751,-0.45954437255859304,1.248852996826172,-0.016020089387893677,-0.6607980728149414,-0.05719460919499397
1778958585.7992377,1.174757080078125,-0.269439697265625,1.1990066528320313,-0.018789449706673622,-0.6428183317184448,-0.06171169877052307
1778958585.8198788,1.2552896118164063,-0.29847930908203146,1.0798544311523437,-0.01721046306192875,-0.6623324751853943,-0.10109101235866547
1778958585.8386652,1.095721435546875,-0.413889312744141,0.9681866455078125,-0.02893567830324173,-0.6683541536331177,-0.1595207005739212
1778958585.8610685,1.009351043701172,-0.399818572998047,0.9894424438476563,-0.06343148648738861,-0.6904690265655518,-0.19070611894130707
1778958585.8833122,1.1804452514648438,-0.3833528137207036,1.0803034973144532,-0.07635267078876495,-0.7471489310264587,-0.23103511333465576
1778958585.906621,1.0288105773925782,-0.40101608276367173,1.1088940429687502,-0.06703051179647446,-0.7712775468826294,-0.27613145112991333
1778958585.927037,0.8414002990722657,-0.2924917602539061,1.0891351318359375,-0.04872337728738785,-0.7570288777351379,-0.29382839798927307
1778958585.9501448,0.9921368408203125,-0.12439132690429666,1.05141357421875,-0.032591454684734344,-0.7942459583282471,-0.2614547610282898
1778958585.9723969,0.8978329467773438,-0.12184661865234325,1.1509565734863283,-0.039568882435560226,-0.7782827615737915,-0.31506478786468506
1778958585.9927192,0.9764195251464844,0.6218069458007811,1.194965057373047,-0.04965095967054367,-0.813439667224884,-0.29422980546951294
1778958586.0181406,1.1816427612304687,1.3626164245605477,0.6864724731445313,0.08015160262584686,-0.8548839688301086,-0.24955449998378754
1778958586.1008308,1.1904743957519532,-0.03278182983398459,0.5028044128417969,0.015184765681624413,-0.8438777923583984,-0.22540195286273956
1778958586.1547964,0.7915539550781251,0.07993377685546932,0.20252883911132813,0.13358017802238464,-0.7664313316345215,-0.26896676421165466
1778958586.2147813,1.0018666076660157,-0.19564315795898501,0.0652642822265625,0.008964089676737785,-0.6569178700447083,-0.21408888697624207
1778958586.2647936,0.8810678100585938,-0.10747650146484311,-0.029788055419921876,-0.014552708715200424,-0.5453431010246277,-0.1409171223640442
1778958586.306769,0.5587879943847657,-0.015567626953124858,-0.06840774536132813,-0.01404733769595623,-0.39469027519226074,-0.14604893326759338
1778958586.328475,0.5481600952148438,0.12005035400390618,-0.15896942138671877,-0.0036275237798690796,-0.36585503816604614,-0.11895876377820969
1778958586.349141,0.46702880859375,-0.27422973632812564,-0.28351043701171874,-0.024997100234031677,-0.3394301235675812,-0.12843440473079681
1778958586.3707738,0.33171020507812504,-0.31225067138671925,-0.3393443298339844,-0.03111691027879715,-0.3208191692829132,-0.11763320863246918
1778958586.404354,0.17318984985351563,-0.20582199096679688,-0.31823822021484377,-0.016691219061613083,-0.3229699730873108,-0.04663345217704773
1778958586.424288,0.04266128540039063,-0.2920426940917977,-0.3227288818359375,-0.003955969586968422,-0.3250158429145813,-0.03877352550625801
1778958586.4448187,-0.09370513916015626,-0.4394860839843755,-0.18471588134765626,-0.022690903395414352,-0.3146500289440155,-0.05438883602619171
1778958586.4671848,-0.15702346801757813,-0.47301635742187464,-0.0058378601074218755,-0.06114490330219269,-0.2943645715713501,-0.06181368976831436
1778958586.4864857,-0.15777191162109375,-0.2326162719726561,0.1874102783203125,-0.06258773058652878,-0.2846582531929016,-0.05814647302031517
1778958586.5063944,-0.2124082946777344,0.0067359924316399145,0.21689895629882813,-0.03581295907497406,-0.24810510873794556,-0.06252163648605347
1778958586.5271416,-0.15477813720703126,0.46358596801757734,0.1694476318359375,-0.025597136467695236,-0.22142302989959717,-0.06936973333358765
1778958586.6113307,0.11211685180664063,-0.3724255371093754,0.11211685180664063,-0.12945182621479034,-0.14212274551391602,0.0031234221532940865
1778958586.6277385,0.02245330810546875,-0.6090834045410158,0.32677047729492187,-0.06717491149902344,-0.08013840764760971,0.03019150346517563
1778958586.6489685,0.001945953369140625,-0.566871185302734,0.48529083251953126,-0.027849338948726654,-0.04825984314084053,0.04396963119506836
1778958586.6682115,0.001047821044921875,-0.5652246093750009,0.48633865356445316,-0.1187441274523735,-0.03343020752072334,0.0730544775724411
1778958586.688414,-0.23441253662109376,-0.5025050354003913,0.2932402038574219,-0.03684752807021141,0.01629658043384552,0.031070146709680557
1778958586.7077289,-0.28725265502929687,-0.0693058776855473,0.22049148559570314,0.021470166742801666,0.014114003628492355,0.056306518614292145
1778958586.725528,-0.18830841064453127,0.10029144287109304,0.22183868408203125,0.02702125906944275,-0.005269015673547983,0.07280586659908295
1778958586.7452767,-0.02724334716796875,0.11511062622070334,0.36119888305664066,0.0012886971235275269,-0.026341211050748825,0.04035576432943344
1778958586.76507,-0.09235794067382813,0.005837860107421378,0.4872367858886719,-0.01289638876914978,-0.0232287235558033,-0.025915641337633133
1778958586.784791,-0.20312759399414063,-0.14355148315429744,0.5192701721191406,-0.006390783935785294,0.019672604277729988,-0.02727702632546425
1778958586.80439,-0.067060546875,-0.24324417114257812,0.5760021972656251,0.011591828428208828,0.06944252550601959,0.022588012740015984
1778958586.8243377,0.3183879089355469,-0.2680924987792963,0.5977070617675782,0.006407545879483223,0.07568798214197159,0.07600731402635574
1778958586.841517,0.42766067504882815,-0.258811798095703,0.667012939453125,0.016373708844184875,0.07696879655122757,0.08670226484537125
1778958586.8599868,0.11900253295898439,-0.34338592529296896,0.678988037109375,0.05429897829890251,0.15782932937145233,0.08199547231197357
1778958586.882517,-0.25731491088867187,-0.4409829711914064,0.6524931335449219,0.05142978951334953,0.2639339864253998,0.08833666890859604
1778958586.901948,-0.12124786376953126,-0.19923568725585916,0.7210505676269532,0.05686196684837341,0.30764949321746826,0.10611783713102341
1778958586.9208646,0.18172210693359375,-0.06496490478515682,0.8419990539550781,0.056989703327417374,0.30399540066719055,0.1391739398241043
1778958586.9410965,0.20881576538085939,-0.2218386840820319,1.058448944091797,0.03349688649177551,0.2978860139846802,0.13889195024967194
1778958586.9583426,-0.22887405395507815,-0.3348536682128902,1.1660751342773439,0.01247175969183445,0.3315052390098572,0.1038290485739708
1778958586.9779544,-0.32362701416015627,-0.20387603759765582,0.9954299926757812,0.007123302668333054,0.3723369240760803,0.0856538712978363
1778958586.9982164,0.024399261474609375,0.026494903564453054,0.7455995178222656,-0.000713457353413105,0.36039501428604126,0.12480651587247849
1778958587.0186036,0.058528289794921876,-0.06242019653320341,0.7640112304687501,-0.021340008825063705,0.35264304280281067,0.1400795429944992
1778958587.0388153,-0.04924758911132813,-0.1875599670410164,0.8541238403320313,-0.02766769379377365,0.38872623443603516,0.1483970731496811
1778958587.0597947,-0.08547225952148438,-0.012573852539063068,1.0183323669433595,-0.03674321994185448,0.4279296100139618,0.17336322367191315
1778958587.0805326,-0.07843688964843751,0.20207977294921875,1.0298583984375,-0.05563613772392273,0.464241623878479,0.19044576585292816
1778958587.102489,0.2525248718261719,0.5894741821289067,0.9568103027343751,-0.037760987877845764,0.4831252992153168,0.15255756676197052
1778958587.122593,0.5539979553222657,1.2268487548828126,0.396375732421875,0.014653549529612064,0.41893765330314636,0.12091618776321411
1778958587.1428437,0.46493316650390626,1.0437794494628907,-0.6965016174316406,0.10372332483530045,0.3589860200881958,0.13137266039848328
1778958587.1612487,0.2149530029296875,1.4706916809082031,-0.7908055114746094,0.11864564567804337,0.31547269225120544,0.061737675219774246
1778958587.1829984,0.28635452270507816,1.2507989501953123,-0.7158114624023438,0.13378337025642395,0.3029126226902008,0.05698951333761215
1778958587.202732,0.37781433105468754,0.35566040039062585,-0.3448828125,0.13927695155143738,0.3114301264286041,0.12981201708316803
1778958587.2214036,0.7887098693847656,-0.29458740234374936,0.590372314453125,0.19101056456565857,0.3533230423927307,0.21509677171707153
1778958587.2404926,0.8852590942382813,-0.9807604980468749,1.1737092590332032,0.06264189630746841,0.3663194179534912,0.2962178587913513
1778958587.2593734,0.5930667114257813,-1.4365626525878898,1.0349478149414062,-0.031577978283166885,0.410083144903183,0.30402398109436035
1778958587.2770195,0.20043319702148438,-1.0663824462890634,0.5147795104980469,-0.03362634778022766,0.4646069407463074,0.26978206634521484
1778958587.2998288,0.16854949951171877,-0.26449996948242216,-0.1275347900390625,0.010246586054563522,0.4550204873085022,0.21838924288749695
1778958587.3191695,-0.028889923095703127,0.27033782958984354,-0.4505630493164063,0.04990040510892868,0.4492870271205902,0.08689183741807938
1778958587.338924,0.07140151977539062,0.47436355590820334,-0.6894662475585938,0.08935771882534027,0.44262975454330444,0.012590399011969566
1778958587.357261,0.5156776428222657,0.16839981079101562,-0.5105882263183594,0.09816542267799377,0.42525434494018555,-0.014255046844482422
1778958587.3759732,0.6496490478515625,-0.18636245727538991,-0.06256988525390625,0.07508188486099243,0.4391641318798065,0.0017673363909125328
1778958587.3984673,0.8704399108886719,-0.3004252624511725,0.09145980834960937,0.07864336669445038,0.41317018866539,0.07383713126182556
1778958587.418377,1.545685729980469,-0.3219804382324227,0.037122802734375,0.07809323817491531,0.3262128233909607,0.14162074029445648
1778958587.4407861,1.1533515930175782,-0.6072871398925788,-0.11825408935546876,0.04911977797746658,0.3290466368198395,0.13329780101776123
1778958587.461222,0.7126679992675782,-0.35985168457031236,-0.305364990234375,0.01321012806147337,0.3627987504005432,0.16123925149440765
1778958587.4844265,1.3096266174316407,-0.18591339111328153,-0.552052001953125,0.05570088326931,0.31884196400642395,0.2013462334871292
1778958587.506025,1.2412188720703126,-0.4221221923828118,-0.5086422729492188,0.055766817182302475,0.32488852739334106,0.15180329978466034
1778958587.5265508,1.3385165405273438,-0.2776725769042976,-0.5659730529785156,0.06538307666778564,0.29119613766670227,0.15133164823055267
1778958587.5483124,1.5907420349121095,-0.17318984985351626,-0.6042933654785156,0.07768812775611877,0.2506643533706665,0.14043889939785004
1778958587.5727115,1.426084442138672,-0.27303222656249915,-0.5577401733398438,0.055985867977142334,0.2509608864784241,0.10326366871595383
1778958587.5956109,1.374591522216797,-0.1276844787597664,-0.38170623779296875,0.03629248961806297,0.2664223313331604,0.1062687560915947
1778958587.616306,1.5236814880371095,0.002844085693359588,-0.1375639343261719,0.040543414652347565,0.2687382698059082,0.0984010100364685
1778958587.636151,1.5862513732910157,-0.0004490661621101566,0.16600479125976564,0.03146495670080185,0.25665199756622314,0.05814698711037636
1778958587.6564891,1.4973362731933595,-0.044158172607421164,0.21405487060546877,0.013217760249972343,0.2622106075286865,0.04949546977877617
1778958587.6750798,1.464404754638672,-0.0393681335449223,0.1191522216796875,-0.0047379969619214535,0.26627495884895325,0.055755991488695145
1778958587.6967154,1.6208294677734376,-0.0064366149902337355,0.013322296142578125,-0.009717373177409172,0.2285882532596588,0.07929232716560364
1778958587.7155333,1.7390835571289063,-0.13292358398437543,0.01945953369140625,0.0010394304990768433,0.16568906605243683,0.09652185440063477
1778958587.7341616,1.7580940246582033,-0.4194277954101562,0.032931518554687504,0.010021878406405449,0.09484874457120895,0.09512346982955933
1778958588.9030514,0.3357518005371094,-0.030536499023437358,-0.28351043701171874,0.03358736261725426,0.017583735287189484,-0.050169944763183594
1778958588.9199002,0.204774169921875,-0.1770817565917966,-0.28216323852539066,0.14136645197868347,0.06283129006624222,-0.05083388835191727
1778958588.9361439,0.032183074951171876,-0.25506958007812486,-0.2896476745605469,0.06562977284193039,0.014055195264518261,-0.02494555525481701
1778958588.9524071,0.1573228454589844,-0.49067962646484453,-0.42002655029296876,0.0364680215716362,-0.036169491708278656,-0.0273909829556942
1778958588.968907,0.20612136840820314,-0.4827461242675781,-0.3680845642089844,0.07258528470993042,-0.04424712806940079,-0.02637312188744545
1778958588.983964,0.06182144165039063,-0.3415896606445319,-0.10148895263671875,0.11864139884710312,-0.06198941171169281,-0.019116727635264397
1778958589.000431,-0.022752685546875002,-0.23531066894531172,0.05643264770507813,0.11491367965936661,-0.06877785176038742,-0.016858302056789398
1778958589.017345,-0.24519012451171876,-0.07843688964843665,0.2896476745605469,0.08371808379888535,-0.07798410207033157,-0.006026919931173325
1778958589.0346365,-0.3519181823730469,-0.0787362670898446,0.21315673828125,0.07897070050239563,-0.051127612590789795,0.0002904236316680908
1778958589.0510619,-0.21046234130859376,0.018561401367186647,0.13965957641601562,0.0732228010892868,-0.04464654251933098,-0.005440433043986559
1778958589.0705428,-0.12708572387695313,0.12199630737304723,0.13202545166015625,0.05628624185919762,-0.03398629277944565,-0.04436887428164482
1778958589.0878377,0.024998016357421875,0.29713211059570277,0.08232879638671875,0.04967394098639488,-0.043738219887018204,-0.09175248444080353
1778958589.107776,0.07679031372070313,0.3460803222656246,-0.04326004028320313,0.05754294991493225,-0.04656381160020828,-0.11231812089681625
1778958589.1280828,0.1531315612792969,0.3022215270996096,-0.0413140869140625,0.08378956466913223,-0.005741881672292948,-0.08833173662424088
1778958589.1462986,0.18276992797851563,0.04251159667968807,-0.003742218017578125,0.09624207764863968,0.034337546676397324,-0.05718002840876579
1778958589.1654558,0.29847930908203124,-0.14190490722656257,0.0473016357421875,0.09686658531427383,0.057262785732746124,-0.02734791487455368
1778958589.1846144,0.34563125610351564,-0.4421804809570311,0.020357666015625,0.13075347244739532,0.09057599306106567,-0.015978295356035233
1778958589.2044072,0.3950285339355469,-0.6256988525390632,0.09894424438476564,0.18412567675113678,0.1666187196969986,0.057043176144361496
1778958589.223987,0.24533981323242188,-0.8264314270019533,0.020507354736328125,0.23290273547172546,0.258348673582077,0.1156565397977829
1778958589.2428255,0.4132905578613281,-0.8409512329101556,-0.3335064697265625,0.3158128261566162,0.2904030382633209,0.14780293405056
1778958589.2596366,0.8370593261718751,-0.7399113464355462,-0.6601272583007813,0.4130856394767761,0.29177039861679077,0.2083817720413208
1778958589.2764447,1.1603869628906252,-1.1000624084472665,-1.024768981933594,0.6543630957603455,0.301750510931015,0.2486152946949005
1778958589.3361232,0.6743476867675782,-1.7862355041503903,-1.0762619018554689,0.7822748422622681,0.35409748554229736,0.07790102809667587
1778958589.3545709,-0.1389111328125,-1.9669097900390629,-1.1880793762207031,0.991065502166748,0.7480452060699463,-0.07286027818918228
1778958589.3735285,0.9080117797851563,-1.614692230224609,-2.0194505310058597,1.3228908777236938,0.8216832876205444,0.034454017877578735
1778958589.3925366,0.9660910034179688,-1.9877165222167967,-2.386487274169922,1.579744577407837,0.9423173666000366,0.10419492423534393
1778958589.410104,0.030386810302734376,-2.0278330993652345,-1.789977722167969,1.5638614892959595,1.0412731170654297,-0.018454324454069138
1778958589.4277418,-0.3246748352050781,-1.6991166687011727,-1.629661102294922,1.5527446269989014,1.0863003730773926,-0.117013119161129
1778958589.4560907,-0.3448828125,-1.9200572204589843,-3.2220497131347656,2.1635632514953613,1.2700235843658447,-0.27830201387405396
1778958589.4740663,-0.135318603515625,-3.7480558776855473,-3.6527041625976566,2.816229820251465,1.4286842346191406,-0.19036875665187836
1778958589.49091,-1.0487191772460938,-4.565356292724609,-2.149080963134766,2.812140941619873,1.5630779266357422,-0.17542728781700134
1778958589.510739,-1.1056008911132813,-4.1674836730957034,-1.3078303527832031,2.4733846187591553,1.584281086921692,-0.31756746768951416
1778958589.5595715,-0.7229965209960938,-4.565206604003906,-5.739813995361328,3.4804506301879883,2.1580350399017334,-0.15651682019233704
1778958589.5793417,-0.15657440185546875,-3.7990997314453123,-4.715494079589844,3.6578280925750732,2.1953439712524414,-0.13277851045131683
1778958589.600104,0.49606842041015625,-3.7973034667968752,-2.7355613708496094,3.2489771842956543,1.7577110528945923,-0.29806050658226013
1778958589.6194036,1.0795550537109375,-5.122497711181641,-2.2480252075195315,2.7013893127441406,1.3546613454818726,-0.6003237366676331
1778958589.8854973,0.4999603271484375,-5.73128173828125,-3.8782850646972657,2.5274267196655273,1.318521499633789,-0.5327910780906677
1778958589.9046571,3.8116735839843754,-1.4269825744628903,-9.338031463623047,1.9796899557113647,1.5514193773269653,-0.5374751687049866
1778958589.924446,2.630779266357422,-1.5528707885742197,-8.067623291015625,1.8844600915908813,1.9854298830032349,-0.7893347144126892
1778958589.9416752,3.077151031494141,-3.3188983154296876,-10.354268188476563,1.366267204284668,2.4029760360717773,-0.8841732144355774
1778958589.9578292,4.665797424316406,-2.775378570556641,-11.378588104248047,1.037644386291504,2.2822182178497314,-0.9434080719947815
1778958590.0023837,4.813240814208984,-4.776267700195313,-8.636590118408204,1.3700014352798462,2.053656816482544,-0.9448353052139282
1778958590.0223823,6.81906967163086,-4.384831695556641,-6.330785064697266,0.6827086210250854,1.849267601966858,-1.4554245471954346
1778958590.043075,11.442205810546875,3.376229095458985,-15.46030014038086,-0.9025046825408936,0.27741751074790955,-0.750712513923645
1778958590.0635793,13.710588684082031,-6.303541717529297,-22.888602905273437,-1.6420238018035889,-2.5949301719665527,-0.19322986900806427
1778958590.0855358,8.898844757080079,-14.859449615478518,-14.450949096679688,-0.7433401346206665,-1.8510676622390747,-0.8824996948242188
1778958590.1053886,10.463540954589844,-7.930059356689453,-10.053543548583985,-0.680943489074707,-0.9426082968711853,-0.9982108473777771
1778958590.1246376,14.067296905517578,-6.086792449951172,-14.621893615722657,-1.0431442260742188,-1.6372841596603394,-1.153678059577942
1778958590.1437087,10.306367797851562,-5.606141967773437,-13.667178955078125,-0.7032176852226257,-1.392228364944458,-1.305931568145752
1778958590.1653843,0.9036708068847656,-8.831784210205079,-7.849077758789063,0.29700836539268494,0.41168904304504395,-1.1536551713943481
1778958590.1864095,3.5254687500000004,-11.958033142089844,-8.60380828857422,1.3189505338668823,0.9595662355422974,-0.3970784842967987
1778958590.2068777,6.997199249267578,-11.042237548828126,-8.160430297851564,0.854619562625885,0.829108476638794,0.12013865262269974
1778958590.2262409,4.913232879638672,-7.261549530029297,-7.971972198486329,1.813075065612793,0.5200002789497375,0.1536920666694641
1778958590.2469091,5.664819946289063,-5.308860168457032,-7.095095672607422,1.3878235816955566,-0.5428172945976257,0.6858322024345398
1778958590.2679818,3.7751495361328127,-5.871390380859376,-4.693938903808594,0.9743576645851135,-0.631223201751709,1.3094673156738281
1778958590.2863538,2.0459454345703127,-7.549101562500001,-4.14143783569336,0.5656226873397827,-0.4781777262687683,1.9178768396377563
1778958590.3022623,2.1679417419433595,-7.583829345703125,-4.662055206298828,0.5124244689941406,-0.1934879571199417,2.068082332611084
1778958590.321435,4.736600189208985,-8.102650451660157,-8.014034729003907,1.6483731269836426,0.4420040547847748,1.9011820554733276
1778958590.339232,6.007756805419922,-9.102122039794923,-9.918374633789062,0.5237607359886169,-0.9295345544815063,1.7291449308395386
1778958590.360398,1.7827926635742188,-10.127190399169923,-10.495724029541016,-0.048940811306238174,-1.6144896745681763,0.9398794770240784
1778958590.3825858,3.8678068542480473,-6.702462158203126,-8.665330352783204,0.6211645007133484,-1.5614697933197021,0.566046416759491
1778958590.4033258,8.695866851806642,-7.889344024658204,-7.573650512695313,-0.04178938269615173,-2.1638102531433105,0.09543703496456146
1778958590.4506726,1.89446044921875,-13.399385833740235,-6.034700775146485,0.06773953139781952,-1.5717782974243164,0.24874094128608704
1778958590.4667375,2.1453387451171877,-10.456206207275391,-9.421707458496094,0.29799750447273254,-1.0172053575515747,0.44740501046180725
1778958590.4872653,6.737938385009766,-11.439361724853516,-11.091934204101562,0.07901012152433395,-1.3461560010910034,0.6286451816558838
1778958590.5075705,6.149362335205079,-11.578123168945313,-9.643546142578126,-0.18977704644203186,-1.5091700553894043,0.3451019823551178
1778958590.5417638,0.3448828125,-8.431516571044922,-10.948532409667969,0.38528287410736084,-0.9808485507965088,0.04860614985227585
1778958590.5937424,3.1534922790527347,-10.248288574218751,-8.976533203125001,0.14276763796806335,-1.2320888042449951,-0.15280354022979736
1778958590.6154094,1.1334429931640626,-8.560697937011719,-10.988648986816408,0.3231549561023712,-1.130176067352295,-0.1296202689409256
1778958590.6365592,2.943329315185547,-9.637708282470703,-10.049352264404297,0.1685831993818283,-1.2895513772964478,-0.03279817849397659
1778958590.657127,2.3037094116210937,-9.971214752197266,-9.695637817382813,0.07508795708417892,-1.2640514373779297,-0.2644270956516266
1778958590.6957207,2.1444406127929687,-9.017996978759767,-9.100924530029298,0.4547601044178009,-1.2082527875900269,-0.13426633179187775
1778958590.7169886,2.3034100341796875,-10.721155242919922,-9.743687896728517,0.35143283009529114,-1.1643402576446533,-0.1061735525727272
1778958590.73734,0.6273454284667969,-11.523935852050782,-13.123060455322266,0.374979704618454,-1.171045184135437,-0.25341862440109253
1778958590.7563396,-0.20252883911132813,-9.10436737060547,-13.502970428466798,0.353284627199173,-1.1893171072006226,-0.49030840396881104
1778958590.7744985,1.8748512268066406,-9.916578369140625,-11.070678405761718,0.6189490556716919,-1.0961322784423828,-0.6380490660667419
1778958590.7972395,-0.4846920776367188,-11.107052764892579,-7.712112579345703,0.5932019352912903,-0.5951780080795288,-0.427926629781723
1778958590.8201377,-2.6526338195800783,-11.726165313720704,-6.996750183105469,0.5675084590911865,-0.07700429111719131,0.2899770736694336
1778958590.840852,-1.7824932861328127,-11.874806213378907,-6.877448272705078,0.7480305433273315,0.0874168798327446,0.49499043822288513
1778958590.87515,0.13606704711914064,-12.219539337158203,-6.352489929199219,1.0200328826904297,0.3754338324069977,0.23792077600955963
1778958590.8928673,-3.799399108886719,-11.273506622314454,-10.030341796875,1.0380991697311401,0.878349244594574,-0.1340404599905014
1778958590.9150193,-4.586013336181641,-10.014474792480469,-11.841575317382812,1.0714932680130005,0.9232164621353149,-0.25455695390701294
1778958590.9343824,-3.007695465087891,-10.3800146484375,-12.115056610107423,0.7524409294128418,0.558381974697113,-0.5106919407844543
1778958590.9540896,-0.7622149658203126,-10.501412200927735,-12.080328826904298,0.38720354437828064,-0.0040556141175329685,-0.43477484583854675
1778958590.9737728,-2.5770410156250003,-10.31145721435547,-11.850257263183595,0.20404735207557678,-0.03344971686601639,-0.2130674123764038
1778958590.9915774,-3.902384948730469,-9.938732299804688,-11.411968688964844,0.186754047870636,0.4554653465747833,-0.19149069488048553
1778958591.0100286,-2.302362213134766,-9.284742279052734,-9.967921600341798,0.20886585116386414,0.6902011632919312,-0.3531608283519745
1778958591.0454059,-2.3005659484863283,-11.88124282836914,-9.110803985595703,0.09292019158601761,0.7133152484893799,-0.4941803216934204
1778958591.065051,-1.6540603637695312,-10.75169174194336,-12.784614257812501,5.74430450797081e-05,0.6813778281211853,-0.2175416797399521
1778958591.1187828,0.29458740234375,-10.670261077880859,-11.36915771484375,-0.3585590720176697,-0.8453226685523987,0.49579450488090515
1778958591.1398258,-0.5944139099121094,-10.746153259277344,-10.356962585449219,-0.1755293309688568,0.2110617458820343,0.46207860112190247
1778958591.156921,0.028291168212890627,-10.30427215576172,-10.54422317504883,-0.3903905153274536,0.4194953441619873,0.49455639719963074
1778958591.1737394,2.5330325317382814,-10.045310668945312,-10.590177612304688,-1.1063796281814575,0.39526647329330444,0.26281023025512695
1778958591.1887872,3.3834141540527347,-9.577383728027344,-10.094558258056642,-1.3521984815597534,0.16556110978126526,-0.17014087736606598
1778958591.2064545,2.4598347473144533,-9.487720184326172,-9.76539276123047,-1.2275468111038208,0.1530894935131073,-0.29093870520591736
1778958591.22388,-0.019908599853515625,-10.0734521484375,-9.22696243286133,-0.863347053527832,0.3661673367023468,-0.10511980205774307
1778958591.2405858,-0.14340179443359377,-10.260563049316406,-8.93581787109375,-0.9022617340087891,0.5394988059997559,0.4403046667575836
1778958591.2602983,0.9737251281738282,-9.768236846923829,-9.431437225341798,-1.2152765989303589,0.43715667724609375,0.496536523103714
1778958591.2866955,0.7936495971679688,-8.980125732421875,-10.118658142089844,-1.170605182647705,0.20644013583660126,0.1404000073671341
1778958591.3089578,-0.17678237915039063,-8.250842285156251,-9.925559692382812,-0.816638708114624,0.05590924993157387,0.08410981297492981
1778958592.4844565,2.2134471130371094,-9.095685424804689,-8.65754653930664,-0.6763162612915039,0.4441774785518646,0.26630452275276184
1778958592.5048819,0.6475534057617188,-8.039930877685547,-9.363328857421875,-0.47359374165534973,0.035561833530664444,0.05889790505170822
1778958592.5268676,1.1705657958984375,-6.269412689208984,-8.648116149902345,-0.2813507616519928,-0.23127305507659912,0.042215388268232346
1778958592.5481935,3.0982571411132813,-5.1379156494140625,-7.756719818115235,-0.2627262473106384,-0.42705294489860535,0.04907377064228058
1778958592.5664625,3.575464782714844,-5.543721771240235,-8.495283966064454,-0.2255314737558365,-0.5391075611114502,-0.1896066814661026
1778958592.5868585,3.7784426879882815,-6.650220794677734,-8.608598327636718,-0.183012455701828,-0.527934730052948,-0.41883033514022827
1778958592.6086652,4.353846130371094,-7.8252772521972656,-8.357720031738282,-0.20142406225204468,-0.35608941316604614,-0.5115376114845276
1778958592.6302874,5.310207366943359,-7.8640466308593755,-8.206833801269532,-0.034747231751680374,-0.09227225184440613,-0.33704766631126404
1778958592.651283,5.582940216064453,-7.1594618225097655,-7.404651947021485,-0.22053377330303192,0.21998746693134308,-0.2829758822917938
1778958592.672221,6.343957672119141,-6.839726715087891,-7.534432067871094,-0.2534814476966858,0.28686168789863586,-0.4170469045639038
1778958592.692714,5.961353302001953,-6.063890075683593,-8.465795288085937,-0.27038878202438354,0.4202589988708496,-0.4321664273738861
1778958592.7142582,4.819827117919922,-5.438640289306641,-9.974956970214844,-0.197938933968544,0.6350646018981934,-0.3400947153568268
1778958592.7330637,3.720363464355469,-5.3563114929199225,-9.658814392089845,-0.03743332624435425,0.8699098229408264,-0.3772904872894287
1778958592.7529123,3.1117291259765625,-4.5390110778808594,-7.850574645996094,-0.04604501649737358,0.9480816125869751,-0.6776102185249329
1778958592.7788274,4.355043640136719,-4.127516784667969,-7.833809509277344,-0.206735298037529,0.8487324714660645,-0.8160772919654846
1778958592.8176863,3.5244209289550783,-5.081333312988281,-7.574099578857422,-0.23908530175685883,1.0116084814071655,-0.8601204752922058
1778958592.837669,4.259242858886719,-4.6695396423339846,-6.887776794433594,-0.30204692482948303,1.1819566488265991,-0.9313926696777344
1778958592.8596091,5.9460850524902344,-4.002975769042969,-7.445666656494141,-0.2844635546207428,1.1833062171936035,-1.070105791091919
1778958592.882072,4.437222747802735,-4.242627410888672,-9.325008544921875,-0.09007445722818375,1.7167718410491943,-1.0942705869674683
1778958592.9042659,5.9516235351562505,-2.6881100463867185,-7.099586334228516,0.026153620332479477,2.0028064250946045,-1.2837735414505005
1778958592.9255316,5.620063018798828,-4.299359436035156,-4.591701507568359,-0.13027648627758026,2.1919877529144287,-1.4851053953170776
1778958592.9495513,4.6571154785156255,-6.7297055053710935,-5.16126708984375,-0.5846282839775085,1.9183292388916016,-1.084206461906433
1778958592.9710515,5.641169128417969,-4.6482838439941405,-6.361171875,-0.4221072793006897,1.231419563293457,-0.8201746344566345
1778958592.9913826,5.33176254272461,-4.530778198242188,-5.748495941162109,-0.24836744368076324,1.0237336158752441,-0.3763646185398102
1778958593.014334,3.8922061157226566,-4.887486419677734,-3.947890319824219,-0.45406216382980347,0.9929165840148926,-0.23897895216941833
1778958593.0360165,3.959116973876953,-4.688550109863281,-3.3512310791015625,-0.5366036295890808,0.884483277797699,-0.20683476328849792
1778958593.123302,5.394781494140625,-4.89347396850586,-5.198240203857422,-0.4066482484340668,-0.708541989326477,0.6980038285255432
1778958593.1503708,5.668711853027344,-4.295317840576172,-4.069886627197266,-0.31047409772872925,-0.920970618724823,0.9507163166999817
1778958593.1727445,5.389392700195312,-4.1674836730957034,-3.936214599609375,-0.5404236912727356,-0.874645471572876,1.1163640022277832
1778958593.1971717,6.4849644470214844,-4.120930480957031,-6.655160522460938,-0.483602911233902,-0.8259794116020203,1.0851531028747559
1778958593.2177505,5.897436218261719,-3.7059933471679694,-7.728728027343751,-0.11964824050664902,-0.8816270232200623,0.6390795707702637
1778958593.2396648,5.592969360351563,-4.259841613769532,-6.341862030029297,-0.15613609552383423,-0.9674031734466553,0.5608302354812622
1778958593.2591236,4.3313928222656255,-4.434079284667969,-6.561605072021485,0.0024209553375840187,-0.8731210231781006,0.47881603240966797
1778958593.2805154,2.9059071350097656,-4.30908920288086,-6.0308088684082035,-0.056007418781518936,-0.6109477877616882,0.38989657163619995
1778958593.30025,3.7477565002441406,-3.9670504760742187,-6.515650634765625,-0.29188039898872375,-0.6222779154777527,0.33601975440979004
1778958593.337237,4.225712585449219,-4.2583447265625,-7.500901794433594,-0.23211826384067535,-0.594978928565979,0.20162706077098846
1778958593.3574488,4.593348083496094,-4.263434143066407,-7.342082061767578,-0.14995776116847992,-0.39313259720802307,0.03391101956367493
1778958593.3767781,4.488266601562501,-4.112098846435547,-6.568041687011719,-0.04564879462122917,-0.2470061480998993,-0.07249470800161362
1778958593.3994818,4.4403662109375,-3.6781512451171876,-6.193370819091797,0.0015844376757740974,-0.2026858925819397,-0.13050895929336548
1778958593.419606,4.020938415527344,-3.860322418212891,-6.655310211181641,0.115171879529953,-0.17524485290050507,-0.12781763076782227
1778958593.437434,3.4179922485351564,-3.833827514648438,-7.00827621459961,0.12531809508800507,-0.12660105526447296,-0.12075331062078476
1778958593.4556067,3.639232177734375,-4.443359985351563,-7.039411468505859,0.1687445193529129,-0.118594229221344,-0.18609210848808289
1778958593.4777591,4.364324340820312,-4.336182861328125,-6.519542541503907,0.19781644642353058,-0.16445018351078033,-0.14979839324951172
1778958593.500406,5.03193603515625,-3.8227505493164067,-6.129902801513672,0.1463814079761505,-0.24837827682495117,-0.09016581624746323
1778958593.5205474,4.367467803955078,-3.5437307739257813,-6.477779388427734,0.13690467178821564,-0.24890661239624023,-0.14146018028259277
1778958593.5406787,4.055965576171875,-3.680845642089844,-6.771019592285157,0.08867800980806351,-0.251679003238678,-0.2402203530073166
1778958593.5669262,3.8934036254882813,-4.0954833984375005,-6.79032943725586,0.05748791620135307,-0.14535436034202576,-0.2475665807723999
1778958593.5933452,4.55772216796875,-4.1710762023925785,-6.5731311035156255,0.041967328637838364,-0.10052889585494995,-0.06826844066381454
1778958593.6169777,4.687352600097657,-4.495451660156251,-6.701414337158203,0.22512677311897278,-0.09358756244182587,0.006910232827067375
1778958593.6373305,4.310586090087891,-4.312831420898438,-6.376739501953125,0.29999643564224243,-0.06636620312929153,-0.06774455308914185
1778958593.6586785,3.8146673583984376,-4.245471496582032,-6.440955963134766,0.29079142212867737,0.03754653409123421,-0.09354948252439499
1778958593.676926,4.169579315185547,-4.2819955444335935,-6.617738342285157,0.27778735756874084,0.1332116425037384,-0.005341912619769573
1778958593.7000902,5.385949859619141,-4.431983642578126,-6.815626831054688,0.2841690182685852,0.0598006471991539,0.09975755959749222
1778958593.7207434,4.816084899902344,-4.52419189453125,-6.823111267089844,0.37682387232780457,0.0618494376540184,-0.012118585407733917
1778958593.7516432,4.593198394775391,-4.243974609375,-6.380182342529297,0.40947189927101135,0.161094069480896,0.003972994163632393
1778958593.7730465,4.3384281921386725,-4.284091186523438,-6.479126586914063,0.3870716691017151,0.1910799890756607,0.02609245479106903
1778958593.7972763,4.589905242919922,-4.484374694824219,-6.878645782470704,0.3911808729171753,0.20235797762870789,0.09487282484769821
1778958593.8195817,4.613406372070313,-4.481979675292969,-6.924600219726563,0.4220651388168335,0.21292921900749207,0.1498510092496872
1778958593.8408656,4.694088592529297,-4.356690216064453,-6.87176010131836,0.466744601726532,0.21084614098072052,0.19466820359230042
1778958593.8605814,4.95574447631836,-4.50024169921875,-6.784192199707031,0.4563097655773163,0.16487857699394226,0.22067680954933167
1778958593.911933,5.054239654541016,-4.7575566101074225,-6.879543914794922,0.5121458172798157,0.2640177309513092,0.23744896054267883
1778958593.9328632,4.712500305175782,-4.700225830078125,-6.780150604248047,0.608762264251709,0.27693837881088257,0.1731693595647812
1778958593.9541855,4.578828277587891,-4.625082092285156,-6.804849243164063,0.6334353685379028,0.27754318714141846,0.20550093054771423
1778958593.981596,4.603676605224609,-4.802313537597657,-6.987319793701173,0.6099646091461182,0.2742287814617157,0.3182596266269684
1778958594.0014184,4.673730926513672,-4.882846069335938,-6.801256713867188,0.5700997114181519,0.3322122395038605,0.3199149966239929
1778958594.0202425,4.894970855712891,-4.954397277832031,-6.889573059082031,0.5788170099258423,0.3215167224407196,0.2879831790924072
1778958594.03843,5.152734832763672,-5.116210784912109,-6.823410644531251,0.6102072596549988,0.29281479120254517,0.2992191016674042
1778958594.0586667,4.9960107421875,-5.302722930908203,-6.709946594238281,0.6817159056663513,0.26107344031333923,0.33078327775001526
1778958594.0807068,5.334307250976563,-5.349126434326172,-7.28804443359375,0.7961891889572144,0.2088620513677597,0.33591794967651367
1778958594.1320276,5.045707397460938,-5.561534729003906,-6.897656250000001,0.9253166913986206,0.15714861452579498,0.42311573028564453
1778958594.1663868,5.383554840087891,-6.15714614868164,-6.685397644042969,1.0066877603530884,0.5582380890846252,0.47054755687713623
1778958594.189213,5.222040710449219,-6.131848754882813,-6.409820709228516,1.006111979484558,0.8044760227203369,0.3201686143875122
1778958594.217098,5.865103454589844,-6.294410705566406,-6.699767761230469,1.0856539011001587,0.9120421409606934,0.11096592992544174
1778958594.238904,6.163582763671875,-5.376369781494141,-7.1735325622558594,1.4577511548995972,0.61066073179245,-0.1358853429555893
1778958594.2652555,5.420078887939454,-7.341932373046875,-9.65327590942383,-0.26867279410362244,-0.004816854372620583,-0.3228987455368042
1778958594.2867575,9.24806854248047,-7.559879150390625,-8.814420318603515,-0.5222020149230957,-0.9705612659454346,-0.10759025067090988
1778958594.3078518,6.672674102783203,-7.984396362304688,-4.352049865722656,-0.4673560857772827,-1.4061827659606934,-0.10262804478406906
1778958594.3881705,3.121758270263672,-8.884624328613281,-6.452332305908204,-1.0987170934677124,-1.750728726387024,0.47465524077415466
1778958594.462473,5.172793121337891,-6.724765777587891,-8.197403411865235,-0.44914036989212036,-1.491192102432251,0.1238596960902214
1778958594.5062556,6.140231323242188,-8.197702789306641,-7.114255828857422,-0.7859376668930054,-1.342739462852478,-0.2806755304336548
1778958594.8323295,-4.463268585205078,-5.617518310546875,-11.06738525390625,1.1048166751861572,-0.5095870494842529,-0.11526606231927872
1778958594.852837,-2.485431518554688,-7.179669799804688,-10.557844848632813,0.9506902098655701,-0.5851721167564392,-0.5131465792655945
1778958594.8749516,-3.034040679931641,-7.104675750732422,-10.17928207397461,0.9089357256889343,-0.6203639507293701,-0.8382493853569031
1778958594.8971553,-0.46657974243164063,-7.822882232666016,-7.557035064697266,0.7013051509857178,-0.8798636198043823,-0.305821031332016
1778958594.9169865,0.8710386657714844,-10.28466293334961,-8.469836883544922,0.36208322644233704,-1.319750428199768,-0.2914164066314697
1778958594.9375982,-0.9792636108398438,-9.284891967773438,-9.92391311645508,0.23652683198451996,-1.5326343774795532,-0.36618900299072266
1778958594.9564264,-3.1030471801757815,-7.621251525878907,-9.344019012451172,0.24009689688682556,-1.4164143800735474,-0.1117330864071846
1778958594.9779189,-3.406765594482422,-8.237220611572265,-8.772208099365235,0.2074739784002304,-1.1282151937484741,-0.008462522178888321
1778958595.0232382,-5.006339263916016,-8.803642730712891,-10.557545471191407,0.3812471330165863,-0.592147171497345,-0.21182404458522797
1778958595.0764217,-4.121080169677734,-9.230105895996093,-8.992250518798828,0.3772222697734833,-0.347996324300766,-0.22237464785575867
1778958595.0988543,-2.793640594482422,-8.366701354980469,-9.268426208496095,0.3840407729148865,-0.5026151537895203,0.01965152658522129
1778958595.1210437,-3.7018020629882815,-8.011190643310547,-9.140741729736328,0.3285822868347168,-0.43962362408638,0.03483641520142555
1778958595.140971,-3.3605117797851562,-8.325387268066407,-8.993747406005859,0.21937692165374756,-0.4320712089538574,0.07105427980422974
1778958595.1627784,-4.027075653076172,-8.438402252197266,-9.014554138183595,0.2170238494873047,-0.36266466975212097,-0.03318212553858757
1778958595.1848679,-4.1833506774902345,-8.199349365234376,-9.053323516845703,0.2566339671611786,-0.2619425356388092,-0.02837499789893627
1778958595.2084236,-2.891836395263672,-8.970395965576172,-8.538094940185548,0.19266796112060547,-0.2742801904678345,0.013741500675678253
1778958595.2324464,-2.6279351806640627,-9.379944305419922,-8.516539764404298,0.10406307876110077,-0.2774241864681244,-0.09218137711286545
1778958595.252867,-4.533023529052735,-8.630003814697266,-9.132508850097656,0.09385658800601959,-0.23382161557674408,-0.01691020466387272
1778958595.271652,-4.806205444335938,-8.770411834716798,-8.99464553833008,0.02566048875451088,-0.1973392367362976,0.007714447565376759
1778958595.2914953,-4.892725524902344,-8.804690551757814,-9.055269470214844,-0.05997313931584358,-0.08813884109258652,0.03529094159603119
1778958596.407472,-0.6854246520996095,-6.980883178710938,-10.213560791015626,-0.008216825313866138,0.813091516494751,0.021101433783769608
1778958596.4598386,1.0106982421875002,-6.758146362304688,-8.212821350097657,-0.13915970921516418,0.9679027795791626,0.07543019205331802
1778958596.50695,1.6045133972167969,-7.248825988769532,-8.759634246826172,-0.25521835684776306,0.6241657137870789,-0.032069943845272064
1778958596.5651617,1.1042536926269533,-6.8073939514160156,-9.310638427734375,-0.2948121428489685,0.2644091546535492,0.17259618639945984
1778958596.620095,1.448837127685547,-6.761888580322266,-9.15705780029297,-0.31606462597846985,0.0877387598156929,-0.0029475518967956305
1778958596.638453,1.4323713684082031,-6.758894805908204,-9.430389404296875,-0.3522767722606659,0.20834587514400482,0.15223444998264313
1778958596.6577973,2.065704345703125,-6.57522674560547,-9.53172866821289,-0.337021142244339,0.17980650067329407,0.2380712777376175
1778958596.6752582,2.425556030273438,-6.792425079345703,-9.20016815185547,-0.18167799711227417,0.19578295946121216,0.17120006680488586
1778958596.693224,2.382146301269531,-6.805747375488282,-8.996441802978516,-0.1545090228319168,0.21846288442611694,0.12073414027690887
1778958596.7151132,2.2143452453613284,-7.304959259033204,-9.248367919921876,-0.22668392956256866,0.3301522433757782,-0.011487537063658237
1778958596.734436,2.018702087402344,-6.631958770751954,-9.192683715820314,-0.3183708190917969,0.3846365809440613,0.08933871984481812
1778958596.7537525,2.7728338623046875,-6.453080749511719,-9.173074493408203,-0.3142518997192383,0.2805207073688507,0.1104125827550888
1778958596.7723954,2.987637176513672,-6.640790405273438,-9.124725036621093,-0.3099554777145386,0.25788891315460205,0.025412272661924362
1778958596.7905471,2.0133132934570312,-6.186485137939453,-8.965605926513673,-0.3206259608268738,0.27692127227783203,-0.0706511065363884
1778958596.814032,1.4702426147460939,-5.957311706542969,-9.048234100341798,-0.3345550000667572,0.209394633769989,0.15964461863040924
1778958596.8341284,1.8802400207519532,-6.558611297607422,-8.95587615966797,-0.44121477007865906,0.1456781029701233,0.23379547894001007
1778958596.8560214,1.638043670654297,-5.8547749328613286,-8.855135650634766,-0.4207347333431244,0.1581268161535263,0.22377139329910278
1778958596.8811936,2.245181121826172,-5.942941589355469,-8.916508026123047,-0.3672366142272949,0.1287575513124466,0.1698722392320633
1778958596.8984742,2.052382049560547,-6.000122680664063,-8.744066619873047,-0.3599565327167511,0.17024023830890656,0.07530342787504196
1778958596.918611,1.9089802551269532,-6.125412139892578,-8.778794403076173,-0.4077857434749603,0.19703838229179382,0.10780146718025208
1778958596.9378006,2.9967681884765627,-6.749015350341797,-8.953331451416016,-0.45549046993255615,0.1773393452167511,0.034730058163404465
1778958596.9567919,2.6173072814941407,-5.598956909179687,-8.689729614257812,-0.4523496925830841,0.18099983036518097,-0.0041631897911429405
1778958596.9737997,1.9636166381835938,-4.712051239013672,-8.47163314819336,-0.4395526349544525,0.19209596514701843,0.005113890860229731
1778958596.9925432,2.195185089111328,-4.995561676025391,-8.682694244384766,-0.4328162670135498,0.18598319590091705,0.06265655905008316
1778958597.009949,2.338886260986328,-5.263354797363282,-8.730145568847657,-0.42120763659477234,0.18274730443954468,0.12979573011398315
1778958597.0269241,2.4233106994628906,-5.765710144042969,-8.798553314208984,-0.4696180522441864,0.21382366120815277,0.19770923256874084
1778958597.043315,2.6123675537109374,-5.605692901611328,-8.782686309814453,-0.512117862701416,0.22982686758041382,0.13573108613491058
1778958597.0611057,2.7066714477539064,-5.338797912597657,-8.675808563232422,-0.5143314599990845,0.22575968503952026,0.11103292554616928
1778958597.08009,2.568658447265625,-5.0216075134277345,-8.43091781616211,-0.5263684391975403,0.1996367871761322,0.07393346726894379
1778958597.0983682,2.5759931945800782,-5.276078338623047,-8.25892547607422,-0.5740456581115723,0.1690673828125,0.07547527551651001
1778958597.1179986,2.79498779296875,-5.524411926269532,-8.144114227294923,-0.5879940390586853,0.14855362474918365,0.06672535836696625
1778958597.136932,2.6203010559082034,-5.436394958496094,-8.15309555053711,-0.6213459968566895,0.17801357805728912,0.051784347742795944
1778958597.1561701,2.4098387145996094,-4.97969467163086,-8.233179016113281,-0.7184900045394897,0.19275978207588196,0.08144760876893997
1778958597.1749263,2.769690399169922,-4.708608398437501,-8.176896057128907,-0.6518272161483765,0.1470465213060379,0.09602607786655426
1778958597.192822,3.1090347290039064,-5.103936309814453,-8.187823333740235,-0.7192543745040894,0.044718578457832336,-0.011299594305455685
1778958597.2199543,2.707569580078125,-5.278323669433594,-8.019573211669922,-0.6648696064949036,0.06038317829370499,-0.0756114050745964
1778958597.2384644,2.2561083984375,-4.750221862792969,-7.66211654663086,-0.6349636912345886,0.17007140815258026,0.04763069748878479
1778958597.257186,2.7101142883300784,-4.44276123046875,-7.4800950622558595,-0.677651584148407,0.21967393159866333,0.17251956462860107
