timestamp,AccX,AccY,AccZ,GyroX,GyroY,GyroZ
1778957991.4745893,-0.4796026611328125,-0.42227188110351577,2.422562255859375,-0.008013690821826458,0.046118319034576416,-0.037799518555402756
1778957991.507378,-0.5495072937011719,-0.3691323852539057,2.6255401611328124,-0.026389047503471375,-0.015652615576982498,0.007923038676381111
1778957991.5272574,-0.5408253479003906,-0.36284545898437415,2.4604335021972656,-0.03641887009143829,-0.028134115040302277,0.012725263833999634
1778957991.5439785,-0.5758525085449219,-0.3841012573242182,2.4764501953125,0.006981236860156059,-0.0216202475130558,0.005561271216720343
1778957991.5655308,-0.5087919616699219,-0.375269622802735,2.3873854064941407,0.027290385216474533,0.004261573776602745,-0.007666201330721378
1778957991.582111,-0.49531997680664064,-0.39263351440429695,2.412084045410156,-0.007894309237599373,-0.0062689101323485374,-0.012853464111685753
1778957991.606864,-0.5004093933105469,-0.378562774658203,2.4174728393554688,-0.0028947312384843826,-0.027803882956504822,-0.009286959655582905
1778957991.6309595,-0.5189707946777344,-0.38859191894531264,2.359243927001953,-0.009403025731444359,-0.002931562252342701,-0.004020716529339552
1778957991.65109,-0.5210664367675781,-0.35027160644531286,2.355052642822266,0.01727154105901718,0.013647407293319702,-0.013842136599123478
1778957991.7059371,-0.528101806640625,-0.38993911743164134,2.480940856933594,-0.020269887521862984,-0.019241785630583763,0.015981396660208702
1778957991.7281644,-0.5152285766601563,-0.47256729125976626,2.321971435546875,-0.007500844541937113,0.0033596912398934364,0.005973604507744312
1778957991.7477868,-0.4962181091308594,-0.42631347656250007,2.432142333984375,0.012681383639574051,0.021962236613035202,-0.005772766191512346
1778957991.768612,-0.5104385375976562,-0.37317398071289,2.6577232360839846,0.006938355974853039,-0.009345640428364277,0.006146667990833521
1778957991.7869382,-0.46478347778320317,-0.4216731262207034,2.540816345214844,-0.021770380437374115,-0.03600496053695679,0.003936725668609142
1778957991.807217,-0.4571493530273438,-0.4290078735351557,2.342478790283203,-0.0017184535972774029,-0.015208050608634949,0.006895840167999268
1778957991.826964,-0.4549040222167969,-0.4641847229003915,2.3596929931640624,0.007312268018722534,0.011623725295066833,0.006361018400639296
1778957991.847643,-0.5002597045898438,-0.4093986511230465,2.4742048645019534,-0.014645572751760483,0.011684998869895935,0.0011412985622882843
1778957991.870027,-0.5725593566894531,-0.3668870544433602,2.4999513244628906,0.010422187857329845,-0.006669104564934969,0.006165991071611643
1778957991.8912344,-0.5851332092285156,-0.4001179504394532,2.525697784423828,0.001294323243200779,-0.028305048123002052,0.008951742202043533
1778957991.9115126,-0.45640090942382816,-0.389040985107421,2.289039916992188,-0.027416031807661057,0.00011924793943762779,0.016618799418210983
1778957991.9313483,-0.4436773681640625,-0.4382885742187508,2.228565673828125,-0.02883407473564148,0.0030559664592146873,0.021624067798256874
1778957991.9529698,-0.4920268249511719,-0.4516108703613284,2.378104705810547,-0.028035052120685577,-0.014101370237767696,0.008158285170793533
1778957991.9737806,-0.4656816101074219,-0.41957748413086016,2.4218138122558597,-0.010702673345804214,-0.022381840273737907,-0.0024826079607009888
1778957991.9945743,-0.43200164794921875,-0.3388952636718745,2.2924827575683593,0.008236401714384556,-0.038010962307453156,-0.007205225061625242
1778957992.0135636,-0.3998185729980469,-0.34383499145507734,2.180365905761719,-0.004564397037029266,-0.025070063769817352,0.014308764599263668
1778957992.0329413,-0.37901184082031253,-0.34503250122070384,2.1763243103027343,-0.05665964260697365,-0.02760874107480049,0.03218454122543335
1778957992.0536025,-0.4099974060058594,-0.3631448364257821,2.229463806152344,-0.08919163793325424,-0.05271068960428238,0.05053677037358284
1778957992.077708,-0.4122427368164063,-0.43484573364257884,2.2302122497558594,-0.09987182170152664,-0.11675842106342316,0.03320183604955673
1778957992.098227,-0.3457809448242188,-0.489631805419922,1.9044895935058594,-0.031708311289548874,-0.0854121744632721,-0.0064204977825284
1778957992.1484377,-0.4429289245605469,-0.3456312561035162,1.8758990478515627,-0.06832202523946762,-0.0899057611823082,-0.006583076901733875
1778957992.1677961,-0.4827461242675781,-0.2489323425292973,1.924398193359375,-0.15104787051677704,-0.1323537975549698,0.018817629665136337
1778957992.1891205,-0.5099894714355468,-0.3661386108398439,1.8383271789550781,-0.1848629117012024,-0.13679128885269165,0.0012387451715767384
1778957992.212047,-0.5872288513183594,-0.4448748779296867,1.7058526611328126,-0.11569209396839142,-0.09874554723501205,-0.020264383405447006
1778957992.2302554,-0.6206094360351563,-0.5478607177734371,1.924398193359375,-0.07380284368991852,-0.11692363768815994,-0.06517291814088821
1778957992.249483,-0.57719970703125,-0.5099894714355475,1.9413130187988281,-0.07571467012166977,-0.14672963321208954,-0.10024721920490265
1778957992.2678125,-0.4793032836914063,-0.3523672485351561,1.701511688232422,-0.04520494490861893,-0.09622327983379364,-0.08431769907474518
1778957992.2890906,-0.4105961608886719,-0.15328124999999915,1.6244219970703127,-0.032179612666368484,-0.02327558398246765,-0.05098298192024231
1778957992.3111825,-0.5798941040039063,0.02245330810546875,1.9155665588378907,-0.019921306520700455,0.024435177445411682,-0.03875301778316498
1778957992.345001,-0.7512876892089844,-0.05822891235351513,2.2766157531738282,0.016213346272706985,0.02441924624145031,-0.07667471468448639
1778957992.3650923,-0.6271957397460938,0.14055770874023388,2.5176145935058596,0.07241780310869217,-0.070916086435318,-0.15036870539188385
1778957992.3847866,-0.37197647094726566,0.5572911071777344,2.2110520935058595,0.08341853320598602,-0.030685877427458763,-0.12236034870147705
1778957992.40747,-0.30895751953125,0.6520440673828123,2.331551513671875,0.09030726552009583,0.021830851212143898,-0.0702899843454361
1778957992.428739,-0.45699966430664063,0.6973997497558599,2.744393005371094,0.015100855380296707,-0.061643145978450775,-0.12913987040519714
1778957992.4460618,-0.6224057006835938,0.8693920898437497,2.9154872131347656,0.10637489706277847,-0.1181594729423523,-0.14228887856006622
1778957992.463045,-0.6608757019042969,1.1350895690917966,2.7496321105957033,0.11581455916166306,-0.13243398070335388,-0.14330369234085083
1778957992.4828947,-0.49337402343750003,1.2120295715332023,2.683469696044922,-0.03413138911128044,-0.14116153120994568,-0.12624089419841766
1778957992.5021083,-0.5285508728027344,0.9867480468750003,2.922971649169922,-0.2690751552581787,-0.15178054571151733,-0.09953208267688751
1778957992.5201623,-0.7271878051757813,1.0737171936035157,3.13987060546875,-0.3598383963108063,-0.19792890548706055,0.012042516842484474
1778957992.5421097,-0.9225315856933595,0.8324189758300786,3.450624389648438,-0.47482696175575256,-0.21011650562286377,0.06932424008846283
1778957992.5941603,-1.3726455688476564,0.7780819702148438,4.202211456298828,-0.27576541900634766,-0.0997423380613327,0.06967759132385254
1778957992.615577,-1.159339141845703,0.7481442260742188,4.350852355957032,-0.10437260568141937,-0.07290229946374893,-0.10437093675136566
1778957992.6503675,-1.1639794921875,1.308578796386719,3.6908747863769533,-0.013478939421474934,0.3389745354652405,-0.1776214987039566
1778957992.6711974,-1.5693365478515626,1.6911831665039063,4.163741455078125,0.1930735856294632,0.465895414352417,0.00689039146527648
1778957992.6925693,-1.487157440185547,1.1795471191406257,4.474944305419922,0.10439537465572357,0.3027677536010742,0.2050122618675232
1778957992.7195842,-0.8930429077148438,0.20058288574218786,3.492836608886719,-0.31616130471229553,0.028406579047441483,0.32872274518013
1778957992.739385,-0.7098239135742188,-0.1291813659667973,3.010240173339844,-0.33421024680137634,0.1164000853896141,0.3456000089645386
1778957992.7599542,-0.671802978515625,-0.32617172241210923,3.036735076904297,-0.23193104565143585,0.2895793616771698,0.34194013476371765
1778957992.7785795,-0.7896080017089844,-0.3704795837402344,3.477568359375,-0.015486491844058037,0.4122113585472107,0.31825315952301025
1778957992.7971768,-0.8196954345703126,-0.21974304199218686,4.080514526367188,0.019635818898677826,0.320820152759552,0.2869899570941925
1778957992.8166466,-0.5956114196777345,0.09026229858398516,3.8288877868652347,-0.07911918312311172,0.23421582579612732,0.31336715817451477
1778957992.8345156,-0.5077441406250001,0.11660751342773423,3.6286042785644534,-0.07557705044746399,0.2974931001663208,0.3693929612636566
1778957992.8547447,-0.5514532470703125,0.06571334838867138,3.4871484375,0.06062297895550728,0.35307633876800537,0.3960990607738495
1778957992.8715003,-0.738713836669922,-0.1919009399414069,3.872447204589844,0.11688413470983505,0.3115733861923218,0.37213167548179626
1778957992.8884263,-0.839304656982422,-0.4025129699707026,4.006268920898438,0.14840596914291382,0.15542520582675934,0.2612071931362152
1778957992.9074137,-0.7912545776367188,-0.5026547241210935,3.220852203369141,0.24944236874580383,0.10556840151548386,0.15121138095855713
1778957992.9266815,-0.7355703735351563,-0.47825546264648366,2.7331663513183595,0.4307290017604828,0.2596462368965149,0.09090340882539749
1778957992.9475925,-0.7917036437988282,-0.6836283874511722,2.4516018676757816,0.5065262317657471,0.388971745967865,0.04384292662143707
1778957992.9669988,-0.8460406494140625,-0.6858737182617194,2.6003924560546876,0.5041475892066956,0.37202945351600647,0.012847582809627056
1778957993.9973884,-1.6197816467285158,-0.329315185546875,2.0839663696289064,0.25874996185302734,-0.12594875693321228,0.06579273194074631
1778957994.0188127,-1.7545014953613283,-0.22094055175781335,2.108665008544922,0.28733333945274353,-0.18755127489566803,0.009381238371133804
1778957994.0403936,-1.7610877990722658,-0.09849517822265597,2.068997497558594,0.32062026858329773,-0.2133662849664688,-0.03353351354598999
1778957994.0618083,-1.4061758422851562,0.42511596679687536,1.6646882629394533,0.32601577043533325,-0.14570704102516174,-0.030321398749947548
1778957994.0820205,-1.292113037109375,0.6822811889648435,2.0209474182128906,0.21637962758541107,-0.1541280299425125,-0.02289562299847603
1778957994.099663,-1.1819421386718751,0.8663983154296879,2.053280181884766,-0.03318267688155174,-0.19720344245433807,-0.0497419610619545
1778957994.1168401,-1.2195140075683595,0.9587562561035163,1.8687139892578126,-0.15134067833423615,-0.03905787691473961,-0.10625302046537399
1778957994.1334748,-1.3654605102539064,1.1136840820312504,2.0770806884765625,-0.11412319540977478,0.03615356981754303,-0.100920170545578
1778957994.1509027,-1.5272740173339845,0.9225315856933598,3.0663734436035157,-0.06726565957069397,-0.040739528834819794,-0.031382352113723755
1778957994.168865,-1.1680210876464845,0.4153861999511719,3.0253587341308594,-0.1338919699192047,-0.2740399241447449,0.05802035331726074
1778957994.1903696,-0.8446934509277344,0.10223739624023409,2.545307006835938,-0.22489431500434875,-0.35151001811027527,0.08717937767505646
1778957994.2087007,-0.3597019958496094,-0.45355682373046946,1.5880476379394532,-0.19294339418411255,-0.29538244009017944,0.05531902611255646
1778957994.2274337,0.10597961425781251,-0.7828720092773445,0.8720864868164063,-0.137250155210495,-0.13636119663715363,0.006989048328250647
1778957994.2470453,0.36643798828125,-0.8288264465332027,0.7384144592285157,-0.11664120852947235,-0.018092172220349312,-0.04158062860369682
1778957994.2663214,0.5183720397949219,-0.8518785095214838,0.7276368713378907,-0.13994573056697845,0.09979727864265442,-0.10398191958665848
1778957994.2857704,0.6246510314941407,-0.6042933654785152,0.7006929016113281,-0.09121435880661011,0.2710857391357422,-0.12143241614103317
1778957994.3038743,0.4878355407714844,-0.22617965698242237,0.9608518981933595,0.001682167872786522,0.4182415008544922,-0.08956325799226761
1778957994.3201454,0.31210098266601566,0.08936416625976484,1.3882131958007813,0.032266974449157715,0.4631040394306183,-0.05525508150458336
1778957994.3444605,0.19923568725585938,0.18546432495117138,1.7491127014160157,-0.03462523967027664,0.4440329670906067,0.12430193275213242
1778957994.3637538,0.19699035644531251,0.03233276367187443,1.8770965576171876,-0.13124226033687592,0.4001893103122711,0.25652992725372314
1778957994.3836124,0.3092568969726563,-0.17184265136718757,1.5813116455078127,-0.1743830144405365,0.4347746670246124,0.36802539229393005
1778957994.4022682,0.35401382446289065,-0.47990203857421854,1.3900094604492188,-0.16429150104522705,0.4587007761001587,0.4008381962776184
1778957994.422762,0.3088078308105469,-0.7958949279785159,1.289418640136719,-0.07289913296699524,0.5293970108032227,0.3957071900367737
1778957994.4415436,0.24923171997070315,-0.9768685913085946,1.3100756835937502,-0.029556985944509506,0.5483898520469666,0.3772352635860443
1778957994.4620323,0.28949798583984376,-1.00396224975586,1.2112811279296876,0.01715020090341568,0.6158567667007446,0.3462376296520233
1778957994.48508,0.33290771484375004,-0.8072712707519525,1.2567864990234376,0.029038095846772194,0.7045242786407471,0.35350680351257324
1778957994.5131352,0.34398468017578127,-0.715212707519532,1.478924560546875,-0.16727742552757263,0.6899052858352661,0.30557766556739807
1778957994.5327704,0.24563919067382814,-0.5978567504882815,1.3630654907226563,-0.15825124084949493,0.7536751627922058,0.26198652386665344
1778957994.5534635,-0.05239105224609375,-0.5183720397949223,1.3166619873046876,-0.06876469403505325,0.8566297292709351,0.19445431232452393
1778957994.5730863,-0.4397854614257813,-0.22872436523437578,1.6122972106933595,-0.03587213531136513,0.8766250014305115,0.17268015444278717
1778957994.5961788,-0.7125183105468751,-0.06586303710937536,1.8239570617675782,-0.050523318350315094,0.8634036183357239,0.16369709372520447
1778957996.0682487,-0.5560935974121094,-0.623303833007812,1.753303985595703,-0.14452937245368958,1.9385424852371216,0.4014718234539032
1778957996.2799404,-1.8531463623046875,-1.382375335693359,2.109413452148438,-0.20036680996418,1.9267812967300415,0.6975460052490234
1778957996.3011193,-1.8947598266601564,-1.7811460876464853,2.126627655029297,-0.2804003953933716,2.027872085571289,0.6447997093200684
1778957996.3190188,-2.099084930419922,-1.78907958984375,2.467917938232422,-0.2749733328819275,1.9942506551742554,0.62212735414505
1778957996.337387,-2.084714813232422,-1.703158264160157,2.641257476806641,-0.3011073172092438,1.9037690162658691,0.5399394035339355
1778957996.3579443,-1.9378701782226564,-1.3388159179687502,2.629282379150391,-0.2946917712688446,1.8595035076141357,0.5139771103858948
1778957996.3741221,-1.8510507202148438,-1.207987976074218,2.7702891540527346,-0.3556404113769531,1.7566722631454468,0.5077934861183167
1778957996.3958938,-1.57352783203125,-0.8674461364746087,3.1018496704101564,-0.4476984143257141,1.6259335279464722,0.49972930550575256
1778957996.416962,-1.5582595825195313,-0.693956909179688,3.1704071044921878,-0.4703831672668457,1.4912670850753784,0.47093796730041504
1778957996.4372604,-1.6723223876953126,-0.49846343994140696,2.7892996215820314,-0.3041428029537201,1.498852014541626,0.38892433047294617
1778957996.4605105,-1.9987934875488282,-0.274828491210938,2.9292585754394533,0.03572368621826172,1.5473405122756958,0.3216358423233032
1778957996.5209806,-1.5959811401367188,-0.4147874450683595,1.88967041015625,0.25614407658576965,1.1596254110336304,0.2874758541584015
1778957996.5429869,-1.4965878295898438,-0.5563929748535159,1.2829820251464845,0.2394665628671646,1.2003793716430664,0.38530924916267395
1778957996.5624807,-1.4665003967285157,-0.7463479614257817,1.1934681701660157,0.17162539064884186,1.1770350933074951,0.4350792467594147
1778957996.5861757,-1.2493020629882814,-0.8810678100585942,1.5173945617675781,0.0746813490986824,1.0433534383773804,0.47425881028175354
1778957996.6078725,-0.9412426757812501,-0.8066725158691401,1.4998809814453127,-0.07205542922019958,0.9541764259338379,0.49316883087158203
1778957996.6282005,-0.7866142272949219,-0.6107299804687507,1.5700849914550783,-0.07054050266742706,0.9955046772956848,0.4874480664730072
1778957996.6496146,-0.8830137634277344,-0.41433837890624936,2.01900146484375,0.043950989842414856,0.9991022944450378,0.4266575872898102
1778957996.6693733,-0.987945556640625,-0.031434631347655895,2.6336233520507815,0.15120287239551544,0.9207035303115845,0.3952578008174896
1778957996.6923761,-0.87418212890625,0.3159928894042974,3.0957124328613284,0.08885149657726288,0.7243075370788574,0.38321730494499207
1778957996.7121441,-0.36134857177734375,0.31479537963867266,2.601140899658203,-0.15005002915859222,0.7792906165122986,0.2925620973110199
1778957996.7348454,-0.5703140258789062,0.7658074951171869,2.0941452026367187,-0.18854869902133942,1.1073780059814453,0.26480090618133545
1778957996.757579,-1.3287867736816408,0.8190966796874992,3.476071472167969,0.012516571208834648,1.1142494678497314,0.4372132122516632
1778957996.7790685,-1.7500108337402345,0.3565585327148444,4.571044464111329,0.10996783524751663,0.6636078357696533,0.5496745109558105
1778957996.8044057,-0.6432124328613281,-0.8454418945312501,2.3965164184570313,0.0935773253440857,0.5625163912773132,0.518056333065033
1778957996.8255513,-0.1730401611328125,-1.1457174682617186,0.9642947387695313,0.06020033732056618,0.9469566941261292,0.365254670381546
1778957996.8451931,-0.7475454711914062,-0.9672885131835933,1.3515394592285157,0.03688609227538109,1.4558709859848022,0.20249392092227936
1778957996.867258,-1.8169216918945312,-0.334703979492188,2.990930328369141,0.013484890572726727,1.6456257104873657,0.10096744447946548
1778957996.8873475,-2.452649688720703,0.13022918701171804,4.403692474365235,0.027677278965711594,1.44347083568573,0.14585652947425842
1778957996.9362733,-2.325414276123047,0.35476226806640554,4.3173220825195315,0.04234649986028671,1.3265531063079834,0.27494823932647705
1778957996.9577184,-1.3350736999511719,-0.9484277343750005,2.7271788024902346,-0.1596616506576538,1.3542190790176392,0.40947356820106506
1778957996.9779775,-1.2829820251464845,-1.526824951171875,2.322719879150391,-0.11019749939441681,1.3501752614974976,0.35456016659736633
1778957996.9967673,-1.0283615112304687,-1.7464183044433597,2.040556640625,-0.14255158603191376,1.409513235092163,0.286938339471817
1778957997.0163584,-0.7893086242675782,-1.581461334228516,1.663490753173828,-0.15003232657909393,1.5826387405395508,0.2690581977367401
1778957997.0346696,-0.7138655090332031,-1.2145742797851558,1.9407142639160158,-0.12376391142606735,1.633785367012024,0.25352004170417786
1778957997.0540981,-0.8574169921875,-1.000369720458984,2.518063659667969,-0.10265396535396576,1.6357628107070923,0.1645539104938507
1778957997.0743556,-0.9451345825195313,-0.5050497436523429,2.545756072998047,-0.04296593368053436,1.6391159296035767,0.137376606464386
1778957997.0944695,-1.0151889038085937,-0.09430389404296946,2.797233123779297,-0.022252600640058517,1.57177734375,0.23098886013031006
1778957997.117435,-0.7530839538574219,-0.008532257080078764,2.78540771484375,-0.3740454614162445,1.3451906442642212,0.4159216284751892
1778957997.1696246,-0.20133132934570314,-0.8403524780273433,2.176024932861328,-0.3780437111854553,1.252458930015564,0.45691490173339844
1778957997.1911237,0.0652642822265625,-1.2091854858398445,1.9465521240234376,-0.2754853367805481,1.3089598417282104,0.3339737355709076
1778957997.213465,-0.10089019775390626,-1.0853929138183602,2.1920416259765627,-0.10133856534957886,1.3808000087738037,0.2265203893184662
1778957997.2315981,-0.3403921508789063,-0.9222322082519536,2.50279541015625,-0.003950023557990789,1.3977495431900024,0.14597292244434357
1778957997.2532122,-0.6481521606445313,-0.942140808105469,2.6107209777832034,0.06074587628245354,1.3739426136016846,0.10673278570175171
1778957997.2711058,-0.8704399108886719,-1.0484197998046874,2.625689849853516,0.18967249989509583,1.3490498065948486,0.027928348630666733
1778957997.290966,-1.004561004638672,-0.6568341064453129,3.0470635986328127,0.20142483711242676,1.2900538444519043,-0.047957442700862885
1778957997.312005,-0.7059320068359375,-0.0802331542968755,3.02490966796875,0.10405214130878448,1.1365604400634766,0.05709435045719147
1778957997.3291779,-0.6616241455078126,-0.15747253417968743,2.468816070556641,-0.12367769330739975,1.1524782180786133,0.12046507000923157
1778957997.346111,-0.7788304138183594,-0.10044113159179702,2.465373229980469,-0.2780883014202118,1.24269437789917,0.13123595714569092
1778957997.3639026,-0.9777667236328126,0.3173400878906243,3.27399169921875,-0.4088083803653717,1.1482056379318237,0.21804781258106232
1778957997.3852093,-0.9824070739746095,0.49352371215820234,3.7221597290039066,-0.6657139658927917,1.097848892211914,0.21228668093681335
1778957997.4043846,-1.0487191772460938,0.6248007202148429,3.677253112792969,-0.6982471346855164,1.179109811782837,0.19637608528137207
1778957997.4276135,-1.4651531982421875,0.7301815795898445,3.7474571228027345,-0.42537736892700195,1.2477397918701172,0.18566973507404327
1778957997.4487882,-1.8685643005371095,0.6023474121093741,4.089495849609375,-0.17896445095539093,1.1197651624679565,0.19253715872764587
1778957997.4666069,-1.918111267089844,0.21375549316406328,3.685785369873047,-0.07639719545841217,1.0498790740966797,0.17947585880756378
1778957997.4845912,-1.8579364013671875,-0.10268646240234425,2.6458978271484375,0.08400759100914001,1.1472551822662354,0.21596215665340424
1778957997.5033116,-1.8672171020507813,-0.4549040222167964,2.1595591735839843,0.13448521494865417,1.2529957294464111,0.3233560621738434
1778957997.527997,-1.8808387756347658,-0.6728507995605462,2.1824615478515628,0.016263635829091072,1.2478015422821045,0.5069504380226135
1778957997.5520942,-1.6244219970703127,-1.2261003112792963,2.5848248291015627,-0.2876412570476532,1.1125577688217163,0.687053918838501
1778957997.598382,-1.303938446044922,-1.6679814147949212,2.3641836547851565,-0.5690585374832153,1.0689688920974731,0.7447683811187744
1778957997.623087,-1.924398193359375,-1.0258168029785164,3.756288757324219,-0.30407989025115967,1.3249287605285645,0.4142950177192688
1778957997.6458569,-2.1872515869140625,-0.595312042236328,4.779411163330078,-0.1565588116645813,1.021317720413208,0.3840458393096924
1778957997.6663692,-1.9341279602050783,-0.5596861267089839,4.816234588623047,-0.16674460470676422,0.7233690619468689,0.35388126969337463
1778957997.6865902,-1.3774356079101564,-0.8065228271484379,3.1569351196289066,-0.15335522592067719,0.6656475067138672,0.312026709318161
1778957997.7069612,-1.3617182922363282,-0.8660989379882817,2.724484405517578,0.008769234642386436,0.7784783244132996,0.2519535720348358
1778957997.7280028,-1.5715818786621094,-0.8532257080078125,2.5340803527832034,0.12956209480762482,0.8849849104881287,0.1356896460056305
1778957997.7492652,-1.9023939514160157,-0.4366419982910159,2.977158966064453,0.14419883489608765,0.8601194620132446,0.08284454047679901
1778957997.7664666,-2.0812719726562503,-0.2366578674316404,3.206631774902344,0.09984780848026276,0.7365819215774536,0.10870791971683502
1778957997.784259,-2.029629364013672,-0.16121475219726555,3.0864317321777346,0.01481142733246088,0.6254495978355408,0.1903228759765625
1778957997.8038507,-1.930236053466797,-0.24968078613281186,2.998115386962891,-0.07791179418563843,0.5005185604095459,0.26636558771133423
1778957997.825948,-1.7438735961914062,-0.8586145019531255,2.4695645141601563,-0.04956790804862976,0.4100034236907959,0.2707022428512573
1778957997.8457716,-1.6747174072265625,-1.0156379699707028,2.2938299560546875,0.07297012209892273,0.3777083456516266,0.23012502491474152
1778957997.8657603,-1.5355068969726564,-1.185235290527343,1.8767971801757815,0.20252086222171783,0.3696841299533844,0.1755722463130951
1778957997.88619,-1.3451028442382813,-1.2913645935058593,1.8341358947753907,0.18191185593605042,0.3059275448322296,0.13554392755031586
1778957997.9119034,-1.2085867309570313,-1.1142828369140627,1.8544935607910158,0.07989154756069183,0.21459737420082092,0.16468489170074463
1778957997.934876,-1.0307565307617188,-0.936752014160156,2.0670515441894532,-0.07898392528295517,0.06999736279249191,0.23835386335849762
1778957997.9552872,-0.8822653198242187,-0.9915380859375009,2.1140538024902344,-0.10257919132709503,-0.017135977745056152,0.2420424371957779
1778957997.9769955,-0.8316705322265625,-1.0258168029785164,2.083217926025391,-0.06448540836572647,-0.07153154164552689,0.17276179790496826
1778957998.0039518,-0.8503816223144531,-0.702638854980469,1.9172131347656252,0.08043057471513748,0.011109136044979095,0.08780142664909363
1778957998.026426,-1.090781707763672,-0.017812957763672088,2.406695251464844,0.2570790946483612,0.08225186169147491,0.026873135939240456
1778957998.0468931,-1.2388238525390625,0.47675857543945277,2.7403514099121096,0.18751147389411926,0.02675749734044075,0.05429216846823692
1778957998.0692937,-1.3775852966308595,0.7476951599121087,2.937491455078125,0.08927880227565765,-0.07843126356601715,0.1058761328458786
1778957998.0901046,-1.2484039306640626,0.8361611938476567,2.7461892700195314,-0.062236763536930084,-0.11943058669567108,0.17802000045776367
1778957998.1256337,-1.1382330322265626,0.76446029663086,2.434687042236328,-0.14542199671268463,0.1232428103685379,0.14036351442337036
1778957998.1452541,-1.509910125732422,0.707877960205078,3.1566357421875,-0.04884178191423416,0.2241799533367157,0.15604615211486816
1778957998.1667638,-1.6639398193359376,0.2827619934082026,3.5645375061035156,0.08616023510694504,0.1646645963191986,0.23067429661750793
1778957998.190376,-1.4760804748535157,-0.55280044555664,3.3006362915039062,0.16564233601093292,0.06357414275407791,0.3019814193248749
1778957998.2193902,-1.0343490600585938,-1.4434483337402337,2.7654991149902344,0.10913918912410736,0.08407101780176163,0.31527623534202576
1778957998.2414327,-0.9159452819824219,-1.6278648376464844,2.934497680664063,-0.03869340196251869,0.015904277563095093,0.35954341292381287
1778957998.2665684,-0.3879931640625,-1.9523899841308596,2.888094177246094,-0.23148398101329803,-0.01484449952840805,0.2962353825569153
1778957998.2901561,-0.11570938110351563,-1.9326310729980474,2.6207501220703127,-0.2985914349555969,0.25341376662254333,0.07957981526851654
1778957998.3114717,-0.2597099304199219,-1.4446458435058602,2.8593539428710937,-0.17552310228347778,0.5744522213935852,-0.06299840658903122
1778957998.3356292,-0.9536668395996094,-0.10597961425781222,4.490212554931641,-0.030787622556090355,0.7305275201797485,-0.07943302392959595
1778957998.358525,-1.2377760314941406,0.16899856567382798,5.378914489746094,0.034822672605514526,0.42726796865463257,0.0613873191177845
1778957998.3801847,-0.9909393310546876,-0.044158172607421164,4.719385986328125,-0.06226665526628494,0.30570924282073975,0.1482761949300766
1778957998.3985734,-0.5397775268554688,-0.4093986511230465,3.4611026000976564,-0.1293739676475525,0.3976326286792755,0.22104650735855103
1778957998.419333,-0.42391845703125003,-0.7661068725585931,2.7749295043945312,-0.10271918028593063,0.5279708504676819,0.25004443526268005
1778957998.4414203,-0.45520339965820317,-1.0702743530273438,2.8238777160644535,-0.11036032438278198,0.5848825573921204,0.20456025004386902
1778957998.4620225,-0.5297483825683594,-1.1385324096679685,2.9430299377441407,-0.08994779735803604,0.5903319716453552,0.13986754417419434
1778957998.4811833,-0.4986131286621094,-1.081051940917968,2.7620562744140624,0.012458939105272293,0.6745399832725525,0.09788551926612854
1778957999.5672345,-1.8085391235351564,-0.25896148681640696,3.4853521728515626,0.483341246843338,-0.08606724441051483,-0.09249203652143478
1778957999.8571281,-1.3443544006347656,-0.7689509582519527,2.599494323730469,0.3636554777622223,-0.23928414285182953,-0.0425170361995697
1778957999.8798397,-0.49711624145507816,-0.6685098266601557,2.41178466796875,-0.25028616189956665,0.46943429112434387,0.3281666934490204
1778957999.9044623,-0.542471923828125,-0.8854087829589847,1.8649717712402345,-0.1758471429347992,0.5811660885810852,0.27341940999031067
1778957999.928673,-0.6035449218750001,-0.7515870666503908,1.8739530944824219,-0.1888880431652069,0.6963585615158081,0.24693983793258667
1778957999.9499316,-0.6494993591308594,-0.5980064392089837,1.96631103515625,-0.2809017300605774,0.725717306137085,0.271516352891922
1778957999.9704957,-0.7131170654296876,-0.4339476013183585,2.034419403076172,-0.33748042583465576,0.7645412683486938,0.2698770761489868
1778957999.99082,-0.779429168701172,-0.30431716918945284,2.1616548156738284,-0.3192198872566223,0.7968758940696716,0.25574666261672974
1778958000.0136793,-0.9880952453613282,-0.2680924987792963,2.4701632690429687,-0.24581462144851685,0.8118875622749329,0.2397252917289734
1778958000.0317414,-1.0985655212402343,-0.28111541748046953,2.4730073547363283,-0.13665834069252014,0.792936384677887,0.22974495589733124
1778958000.0504024,-1.090931396484375,-0.3019221496582034,2.495310974121094,-0.07166528701782227,0.6904723048210144,0.237334743142128
1778958000.0724235,-0.6465055847167969,-0.5694158935546874,1.9276913452148439,-0.1003832072019577,0.6240160465240479,0.21833182871341705
1778958000.0924866,-0.31105316162109375,-0.6623725891113281,1.5188914489746095,-0.10578228533267975,0.6808875203132629,0.165971040725708
1778958000.112487,-0.3799099731445313,-0.6033952331542967,1.6889378356933595,-0.049193717539310455,0.7720133066177368,0.05877178907394409
1778958000.1306915,-0.6562353515625,-0.22902374267578196,2.259700927734375,0.07856077700853348,0.8301799893379211,-0.036474037915468216
1778958000.1661193,-0.828527069091797,0.2311193847656252,2.9820986938476564,0.1320365071296692,0.6961607336997986,0.00036942772567272186
1778958000.1847465,-0.6331832885742188,0.058079223632812926,2.674937438964844,0.11789672821760178,0.7008444666862488,0.02636907249689102
1778958000.208106,-0.6173162841796875,-0.44053390502929624,2.515518951416016,0.15375427901744843,0.7367010116577148,0.04435640946030617
1778958000.2314496,-0.7996371459960938,-0.6762936401367181,2.8648924255371093,0.1809893399477005,0.669249415397644,0.08375613391399384
1778958000.2507617,-0.664617919921875,-0.8005352783203126,2.8386968994140624,0.06424541026353836,0.5205140709877014,0.11685455590486526
1778958000.2709234,-0.264649658203125,-1.0958711242675783,2.119292907714844,-0.15446026623249054,0.49251317977905273,0.10633127391338348
1778958000.2884057,-0.06152206420898438,-1.1328442382812494,1.6735198974609375,-0.3669406771659851,0.7316228151321411,0.06165863946080208
1778958000.308686,-0.15328125,-0.9901908874511722,1.6139437866210937,-0.5524910092353821,1.04453706741333,-0.04711373150348663
1778958000.3277106,-1.0181826782226564,-0.5830375671386712,2.9115953063964843,-0.6078711748123169,1.1882812976837158,-0.1363503634929657
1778958000.3460517,-1.8694624328613283,0.22872436523437578,4.374952239990234,-0.4464120864868164,1.0123577117919922,-0.06712399423122406
1778958000.3656049,-2.208357696533203,0.41418869018554716,5.175038452148438,-0.35781580209732056,0.6652824878692627,0.027802802622318268
1778958000.4121587,-1.7762063598632813,0.14894027709960866,4.1483235168457036,-0.38860127329826355,0.5586267113685608,0.06080494076013565
1778958000.4314654,-1.4415023803710938,-0.7198530578613287,2.119143218994141,-0.2694856524467468,0.7404011487960815,0.061613839119672775
1778958000.457087,-1.7221687316894532,-0.8526269531250001,2.145488433837891,-0.2162916213274002,0.7195335030555725,0.07391379773616791
1778958000.4766295,-1.6458274841308596,-0.9732760620117187,1.7806970214843751,-0.1753350794315338,0.718885064125061,0.15035240352153778
1778958000.497558,-1.4861096191406251,-1.301244049072265,1.5623011779785156,-0.17965586483478546,0.7611585855484009,0.22974026203155518
1778958000.5199175,-1.3570779418945313,-1.6763639831542978,1.7057029724121096,-0.28966519236564636,0.7824165225028992,0.27873799204826355
1778958000.5394132,-1.4965878295898438,-1.6206797790527343,2.1716839599609377,-0.505156397819519,0.8020803928375244,0.26633965969085693
1778958000.5593007,-1.6244219970703127,-1.4341676330566404,2.3370899963378906,-0.5605398416519165,0.8844641447067261,0.25554776191711426
1778958000.5785987,-2.2097048950195313,-0.8129594421386717,2.7304719543457034,-0.43680813908576965,1.0957233905792236,0.21356803178787231
1778958000.5984251,-2.690654754638672,-0.43469604492187486,3.523672485351563,-0.256114661693573,1.2062815427780151,0.14634115993976593
1778958000.616665,-2.8518695068359374,-0.41448806762695334,3.773353271484375,-0.1147141307592392,1.1053963899612427,0.12658077478408813
1778958000.6360981,-2.916984100341797,-0.42511596679687536,3.8552330017089846,-0.1458311527967453,0.9043253660202026,0.1610245555639267
1778958000.6592162,-2.511926422119141,-0.5158273315429689,2.6402096557617187,-0.317403644323349,0.8382766246795654,0.2537981867790222
1778958000.680084,-2.493065643310547,-0.7676037597656258,1.8738034057617188,-0.36784327030181885,0.9220473170280457,0.35756775736808777
1778958000.7008421,-2.634371795654297,-1.2277468872070312,1.806892547607422,-0.3300662934780121,0.9732781052589417,0.3622179329395294
1778958000.727301,-2.7640022277832035,-1.4879058837890629,1.7173786926269532,-0.13593806326389313,0.9376637935638428,0.27540087699890137
1778958000.7462022,-2.755320281982422,-1.4759307861328121,1.496737518310547,-0.003432991448789835,0.9546772837638855,0.23449887335300446
1778958000.765661,-2.55069580078125,-1.341959381103516,1.061143341064453,0.09322402626276016,1.0491069555282593,0.2730536162853241
1778958000.78617,-2.358944549560547,-1.4816189575195313,1.2455598449707033,0.008960556238889694,1.029374599456787,0.34875404834747314
1778958000.8088787,-2.0850141906738284,-1.4431489562988276,1.7395326232910158,-0.34397152066230774,0.8264888525009155,0.4802013337612152
1778958000.8289554,-1.5696359252929688,-1.5846047973632817,1.9957997131347658,-0.7876440286636353,0.5812321901321411,0.6385761499404907
1778958000.8499873,-1.1151809692382812,-1.9290385437011723,1.7106427001953126,-1.0465606451034546,0.6033675670623779,0.6057204008102417
1778958000.8707879,-1.3323793029785156,-1.5432907104492184,1.8624270629882813,-0.9849259257316589,0.9968182444572449,0.42334792017936707
1778958000.8924294,-2.4504043579101564,-1.0183323669433602,3.4555641174316407,-0.5479586124420166,1.2738286256790161,0.341886043548584
1778958000.910497,-3.4287698364257815,-1.1843371582031246,5.036875762939453,-0.4778608977794647,1.0909512042999268,0.3855293393135071
1778958000.9303546,-2.9916787719726563,-1.7519567871093749,4.672383728027344,-0.4563964903354645,0.5066891312599182,0.6264208555221558
1778958000.9517825,-1.7299525451660158,-3.0707144165039066,2.3664289855957032,-0.6880677342414856,0.20718054473400116,0.7330333590507507
1778958000.9713254,-0.37511993408203126,-3.7764967346191405,0.5692662048339844,-1.115756869316101,0.5283081531524658,0.7398934364318848
1778958000.9924579,-0.1633103942871094,-3.8649627685546877,0.12229568481445313,-1.1080710887908936,1.031847357749939,0.6956451535224915
1778958001.0192554,-1.4269825744628908,-3.701802062988281,2.4102877807617187,-0.8957988619804382,1.34160578250885,0.5877757668495178
1778958001.0473654,-1.512305145263672,-3.4772689819335936,3.4087115478515626,-0.5669929385185242,1.4543944597244263,0.4791090488433838
1778958001.0685365,-0.9644444274902344,-3.918251953125,3.3623080444335938,-0.7619107365608215,1.4722912311553955,0.20981578528881073
1778958001.0884051,-1.0469229125976562,-4.3418710327148435,3.303630065917969,-1.7001479864120483,1.361920714378357,0.042427193373441696
1778958001.1111183,-0.9828561401367188,-3.858675842285156,2.751727752685547,-2.1486024856567383,1.4320018291473389,0.9047771692276001
1778958001.133189,-0.671802978515625,-3.7681141662597657,2.9184809875488282,-1.561435580253601,1.7964048385620117,1.2633947134017944
1778958001.152702,-1.2263996887207032,-6.020330657958985,4.587959289550781,-1.6591804027557373,1.604882836341858,1.0839041471481323
1778958001.1711361,-1.0958711242675783,-6.200705566406251,5.03672607421875,-1.9058969020843506,1.1894316673278809,0.9843900799751282
1778958001.189649,0.3722758483886719,-5.3685859680175785,4.564607849121094,-2.193829298019409,1.0498892068862915,1.1919059753417969
1778958001.2106318,1.3055850219726564,-4.509522399902344,4.325854339599609,-2.886017084121704,0.9366573691368103,1.589640736579895
1778958001.2301664,0.9343569946289063,-5.258864135742188,3.4682876586914064,-2.493515729904175,1.3832521438598633,1.390290379524231
1778958001.250423,0.37976028442382814,-5.729784851074219,3.527714080810547,-1.5594897270202637,1.8095718622207642,0.842740535736084
1778958001.2699027,0.09624984741210937,-4.864584045410156,6.375092926025391,-1.3246208429336548,1.6960901021957397,0.5057646036148071
1778958001.291444,0.12499008178710938,-3.090473327636719,8.50800750732422,-1.8233407735824585,1.5809470415115356,0.4544999599456787
1778958001.3130105,-1.5943345642089846,-1.8447637939453125,9.62169158935547,-1.8524119853973389,1.6198118925094604,0.6405214071273804
1778958001.333678,-2.597398681640625,-1.912423095703125,9.862540740966798,-1.3230339288711548,1.5425535440444946,0.7194172143936157
1778958001.3541214,-3.813619537353516,-2.5155189514160154,10.943592681884766,-0.9949955940246582,1.371626853942871,0.5333878397941589
1778958001.377236,-5.506748657226563,-2.1456381225585934,12.218790893554688,-1.0769593715667725,1.4075604677200317,0.2063964456319809
1778958001.4016926,-5.1236952209472655,-1.324146423339844,13.124856719970703,-0.2604770362377167,1.6715995073318481,0.23773027956485748
1778958001.424396,-3.836222534179688,-2.152074737548828,12.642110595703125,0.06695777922868729,1.3919734954833984,0.7515437602996826
1778958001.4447203,-2.622396697998047,-4.133204956054688,12.269385681152345,-0.4375421702861786,0.6950175166130066,1.1438168287277222
1778958001.464353,-1.5450869750976564,-6.4617626953125,9.450597381591797,-1.1090255975723267,0.27691927552223206,1.121883511543274
1778958001.5290217,-3.5345997619628906,-6.346652069091798,10.516830139160156,-0.9281418919563293,0.9810045957565308,1.4920010566711426
1778958001.5645926,-3.832929382324219,-5.2964360046386725,10.887459411621094,-1.4480267763137817,0.0005117966793477535,1.529267430305481
1778958001.5880647,-3.8444554138183595,-4.9289501953125,9.531279602050782,-1.3915807008743286,0.08304683119058609,2.005988121032715
1778958001.6119187,-3.7091368103027347,-5.6872732543945315,9.756411437988282,-1.548766016960144,-0.3896118402481079,2.30836820602417
1778958001.6401546,-1.6025674438476563,-6.179150390625001,9.114097137451173,-2.0183448791503906,-1.3247606754302979,2.3263652324676514
1778958001.657237,-0.5357359313964845,-7.634424133300781,6.8232609558105475,-1.7761682271957397,-0.6083469986915588,1.2132083177566528
1778958001.6727839,-0.45954437255859376,-8.10235107421875,3.284619598388672,-1.1515612602233887,0.30094778537750244,0.5613876581192017
1778958001.6894026,-0.800984344482422,-7.504644012451172,2.556533660888672,0.45213037729263306,2.1916749477386475,-0.6932162642478943
1778958001.7159529,-5.295238494873047,-9.091194763183594,6.117478637695313,0.968833863735199,3.097959041595459,-2.7089452743530273
1778958001.7321348,-8.021818542480469,-10.401420135498048,9.107510833740236,1.8052796125411987,3.2648825645446777,-4.6033501625061035
1778958001.7510052,-7.423063659667969,-7.112908630371094,8.210126953125,2.6447460651397705,3.286177158355713,-4.9623637199401855
1778958001.7726204,-5.052892456054688,-2.6966423034667972,11.193273468017578,1.2009142637252808,2.8163750171661377,-4.237636566162109
1778958001.7908475,-3.892804870605469,-1.5537689208984382,12.925321655273438,-0.7393147349357605,1.4117157459259033,-3.1107747554779053
1778958001.8104348,-1.4233900451660157,-4.863685913085938,14.010714569091798,-1.7292444705963135,-0.052404336631298065,-2.65472412109375
1778958001.829837,-0.991388397216797,-6.630461883544922,14.400653686523437,-1.2786201238632202,-1.3948285579681396,-2.7360925674438477
1778958001.8514237,-2.135010223388672,-8.583600311279298,12.779973907470703,-0.57139652967453,-1.7974575757980347,-3.0790812969207764
1778958001.872071,-9.796827392578125,-11.90698928833008,10.81201629638672,-0.09771029651165009,-1.3447028398513794,-3.459228277206421
1778958001.8953142,-12.92636947631836,-13.335618438720704,14.675781555175782,0.09107302874326706,-1.5144875049591064,-3.261504650115967
1778958001.9170969,-15.223642272949219,-14.921570434570313,15.499668273925781,-0.33523398637771606,-3.1360745429992676,-2.73736572265625
1778958001.975583,-10.683134307861328,-13.472134552001954,5.739215240478516,-1.2393490076065063,-2.051980495452881,-2.2400028705596924
1778958001.9969904,-9.729766845703125,-11.950997772216798,6.202501831054688,-1.3199915885925293,-1.7768990993499756,-1.350459337234497
1778958002.0177395,-8.315058746337892,-10.402617645263673,7.293133850097656,-1.4478121995925903,-2.6468560695648193,-0.3932439684867859
1778958002.035862,-6.102210388183594,-10.122699737548828,6.924151153564454,-1.2876626253128052,-3.5202603340148926,0.3590189516544342
1778958003.156776,0.0335302734375,-4.9211663818359375,7.943082275390625,1.1893504858016968,-1.163243293762207,-0.01939159631729126
1778958003.184714,3.4419424438476565,-1.102457427978516,7.806715850830079,1.35244619846344,-1.0212312936782837,-0.39896032214164734
1778958003.2062,5.292544097900391,1.1644285583496092,5.670807495117188,1.535008192062378,-0.16179829835891724,-0.22148048877716064
1778958003.228147,5.2205438232421875,0.19519409179687486,7.566764831542969,1.2056597471237183,-0.820471465587616,0.27309128642082214
1778958003.2483702,4.493056640625,-4.175267486572266,8.440497894287109,1.0137922763824463,-1.2566629648208618,-0.012188507243990898
1778958003.2667577,3.8323306274414066,-6.184239807128907,5.17084716796875,1.5602717399597168,-0.815543532371521,-0.3829299211502075
1778958003.2846973,3.3156051635742188,-6.067931671142579,4.254901885986328,1.6300609111785889,-0.5996751189231873,-0.5140988826751709
1778958003.3165903,3.8478982543945315,-4.804558868408203,4.35459457397461,1.1630523204803467,-0.6618503332138062,-0.7822105884552002
1778958003.3379393,4.8984136962890625,-1.7411791992187506,2.5117767333984378,0.9726633429527283,-0.12557779252529144,-0.9036107063293457
1778958003.3573818,5.121599578857422,-1.2493020629882814,4.969964904785156,0.6950093507766724,-0.1750485748052597,-0.95682692527771
1778958003.3754818,4.166884918212891,-1.6715739440917972,5.876779174804688,0.659243106842041,-0.16466271877288818,-1.0674880743026733
1778958003.3947783,3.0165270996093754,-1.07057373046875,4.925507354736328,0.979992151260376,0.16258107125759125,-1.1745660305023193
1778958003.412143,2.5777894592285158,-0.004191284179688282,5.219945068359375,1.0871667861938477,0.1626112312078476,-0.978634238243103
1778958003.427236,2.7861561584472656,0.13486953735351648,5.341492309570313,0.7279029488563538,-0.16826091706752777,-0.5193212032318115
1778958003.4462912,2.9262648010253907,-0.5770500183105476,5.077740783691406,0.7306079864501953,-0.5893502235412598,-0.2812820076942444
1778958003.4671962,2.0841160583496094,-1.8917660522460942,4.306544494628906,0.9980297684669495,-0.5926411151885986,-0.5555945634841919
1778958003.48686,1.0388397216796876,-2.372416534423828,2.7307713317871096,1.2477176189422607,0.1252826601266861,-0.7574949264526367
1778958003.5049045,1.2624746704101564,-0.693807220458984,3.0927186584472657,0.9830619096755981,0.41018006205558777,-0.5596178770065308
1778958003.5243993,1.8709593200683594,-0.17483642578124936,4.124822387695312,0.7064130306243896,0.27593621611595154,-0.43531346321105957
1778958003.544916,2.634820861816406,-0.1972897338867181,3.7577856445312503,0.8645486831665039,-0.07893263548612595,-0.247129425406456
1778958003.5641174,3.6411781311035156,0.6872209167480463,3.726650390625,1.0056596994400024,-0.16016358137130737,-0.16721194982528687
1778958003.5823207,3.808829498291016,0.028889923095702486,4.906047821044922,0.8113871216773987,-0.51666259765625,-0.21036168932914734
1778958003.6015959,3.7532949829101563,-0.33650024414062507,4.507726135253907,0.764248788356781,-0.6093481183052063,-0.5139046907424927
1778958003.6210108,3.333418121337891,0.4680766296386718,4.221072235107422,1.0844852924346924,-0.3265288770198822,-0.9371718168258667
1778958003.6407778,3.377725982666016,1.636097717285157,3.933669891357422,1.24747633934021,0.11078629642724991,-1.3441319465637207
1778958003.6617706,3.203488311767578,1.8130297851562496,5.210664367675782,1.6054354906082153,0.49310052394866943,-1.3334543704986572
1778958003.6825442,3.1362780761718754,1.3409115600585935,8.126600646972657,1.844717264175415,0.17154455184936523,-0.9227561354637146
1778958003.701039,3.0886770629882814,0.894689483642578,9.979148254394532,1.982144832611084,-0.3679990768432617,-0.6833580136299133
1778958003.7204566,3.2698004150390627,-1.6019686889648437,9.642348632812501,2.156176805496216,-1.1048624515533447,-0.5692142844200134
1778958003.740335,3.785028991699219,-3.029100952148438,7.688312072753907,2.424116373062134,-1.2620298862457275,-0.27528154850006104
1778958003.7612214,2.997666320800781,-2.8587551879882813,6.879394226074219,2.5824835300445557,-1.5360888242721558,-0.5162211060523987
1778958003.7806017,3.066972198486328,-2.2465283203124997,3.757486267089844,2.7534425258636475,-1.6055490970611572,-0.991940438747406
1778958003.803987,3.327729949951172,-2.192640380859375,1.0921289062500001,2.5309956073760986,-0.9514922499656677,-1.068303108215332
1778958003.821769,2.707270202636719,-2.6252407836914067,0.7354206848144531,2.0010061264038086,-0.478808730840683,-1.1567285060882568
1778958003.844421,1.6642391967773438,-3.0478120422363286,0.8192463684082032,2.427712917327881,-0.3122826814651489,-1.5570603609085083
1778958003.8638043,1.598675537109375,-2.0032841491699216,-0.35625915527343754,3.3397467136383057,-0.6006747484207153,-0.9507615566253662
1778958003.88322,1.0722203063964844,-2.6900559997558595,0.9062155151367188,3.4768929481506348,-2.184706449508667,-0.5372229218482971
1778958003.9163,-1.8335371398925782,-7.339836730957032,-0.18202148437500001,3.494640588760376,-4.711380958557129,-1.2345366477966309
1778958003.9363933,-4.774621124267578,-6.3318328857421875,-6.382427673339844,3.776064157485962,-4.805222511291504,-1.7541449069976807
1778958003.9542494,-5.498815155029297,-5.193150787353516,-7.909102935791016,4.251734256744385,-4.145880699157715,-1.7276052236557007
1778958003.9770613,-5.386698303222657,-3.071013793945313,-8.951385498046875,4.260648250579834,-3.5681312084198,-1.4722034931182861
1778958003.9963012,-6.2948597717285155,-2.3167323303222656,-8.205486602783203,3.4181368350982666,-3.5546183586120605,-1.3783924579620361
1778958004.0143943,-6.94795166015625,-1.4660513305664065,-7.140900421142579,2.007065534591675,-3.533710479736328,-0.8639668822288513
1778958004.0342042,-7.498357086181641,-3.2919543457031253,-6.94361068725586,0.963611364364624,-3.2517638206481934,-0.5041420459747314
1778958004.0542455,-7.0380642700195315,-5.699847106933594,-7.02264633178711,0.8279032707214355,-2.694246292114258,-0.23966775834560394
1778958004.0744097,-7.82258285522461,-7.6983412170410155,-7.498207397460938,1.379737138748169,-2.115394353866577,0.0021458868868649006
1778958004.0976706,-7.558082885742188,-7.3335498046875,-3.7413198852539065,1.4111450910568237,-2.6101925373077393,-0.1220492571592331
1778958004.1143987,-6.220614166259766,-4.5303291320800785,-3.4811608886718752,1.1300493478775024,-3.2098944187164307,-0.1631333976984024
1778958004.1336448,-5.523813171386719,-1.9523899841308596,-6.122568054199219,0.645864725112915,-2.5523622035980225,0.2514948546886444
1778958004.15155,-8.299940185546875,-4.93134521484375,-6.367309112548829,0.07003472745418549,-1.8745239973068237,0.40166518092155457
1778958004.1680272,-10.652747497558595,-8.018375701904297,-5.720953216552735,-0.344970166683197,-1.6324745416641235,0.339050829410553
1778958004.1861575,-10.887160034179688,-8.970545654296876,-5.7437059020996095,-0.8435268998146057,-1.335856556892395,0.25014424324035645
1778958004.2052643,-10.169552307128907,-8.481362915039064,-4.919070739746094,-0.6998938322067261,-1.4616897106170654,0.2563747763633728
1778958004.2255971,-9.300908660888672,-7.063960418701172,-4.749024353027344,-0.28446149826049805,-1.6863291263580322,0.5538110733032227
1778958004.2447028,-7.51078125,-3.9231916809082037,-4.838837585449219,-0.156737819314003,-1.775389313697815,0.9818284511566162
1778958004.2656941,-7.780071258544922,-3.4203872680664062,-5.297633514404297,-0.7369205951690674,-1.6879005432128906,1.1334515810012817
1778958004.2856326,-7.696245574951172,-4.232298889160156,-4.898114318847656,-1.6765799522399902,-1.408995509147644,1.000108242034912
1778958004.3093736,-6.877897338867188,-3.8808297729492187,-4.332889709472656,-1.9204045534133911,-0.9510422348976135,0.8594024777412415
1778958004.3285217,-6.109545135498047,-2.389630737304688,-3.045267333984375,-1.1040898561477661,-0.7465550899505615,1.13072669506073
1778958004.3493543,-6.069129180908203,-2.097438354492188,-1.477577362060547,-0.4250229001045227,-1.0523380041122437,1.5252982378005981
1778958004.3686748,-6.962920532226563,-3.025508422851563,-1.3452525329589844,-0.43221935629844666,-1.4902251958847046,1.4724180698394775
1778958004.386179,-5.298681335449219,-3.0829888916015626,-1.7247134399414064,-1.0345603227615356,-1.4622796773910522,1.1267145872116089
1778958004.4058478,-4.442012786865234,-2.6270370483398438,-2.2778132629394534,-0.6590598821640015,-1.0981948375701904,1.0637803077697754
1778958004.42614,-4.423900451660156,-2.1989273071289066,-2.369572448730469,0.5990537405014038,-0.7037481069564819,1.0424870252609253
1778958004.444249,-4.712350616455079,-2.3201751708984375,-1.969903564453125,1.1222925186157227,-0.4677916169166565,1.0194252729415894
1778958004.4838107,-3.773353271484375,-1.6908837890625001,-0.8183482360839844,-0.07038969546556473,-0.4923710227012634,1.0364432334899902
1778958004.502,-3.481011199951172,-1.7530046081542974,-0.592767333984375,-0.016491787508130074,-0.6893649697303772,1.0349624156951904
1778958004.5198538,-4.156257019042969,-2.780467987060547,0.056133270263671875,0.11730166524648666,-0.8777298927307129,0.8306736350059509
1778958004.5390618,-4.158652038574219,-2.28724365234375,0.3993695068359375,0.12408734858036041,-1.0784724950790405,0.5911896824836731
1778958004.556914,-3.2382160949707033,-0.8027806091308598,-0.17977615356445314,0.07597573846578598,-1.0465515851974487,0.6053621768951416
1778958004.576662,-2.644999694824219,0.45774810791015597,-0.9177415466308594,0.0066495127975940704,-0.746412456035614,0.9284800887107849
1778958004.5949416,-3.515738983154297,-0.2526745605468754,-0.6360273742675782,-0.12646831572055817,-0.6118314266204834,1.1883881092071533
1778958004.614453,-4.843328247070313,-2.1845571899414065,0.27872039794921877,-0.44681671261787415,-0.734422504901886,0.9816850423812866
1778958004.6328306,-4.321812744140625,-1.8266514587402343,0.37497024536132817,-0.6209218502044678,-0.9241348505020142,0.599146842956543
1778958004.6520317,-3.4802627563476562,-0.9873468017578126,-0.09086105346679688,-0.3708327114582062,-0.883292019367218,0.6327033042907715
1778958004.669163,-2.89557861328125,0.009879455566405682,-0.6960525512695312,-0.059552814811468124,-0.7693459391593933,0.7928963303565979
1778958004.6867287,-3.3138088989257812,0.0011975097656247158,-1.1103909301757813,-0.029787473380565643,-0.7077428698539734,0.8455440998077393
1778958004.703273,-4.075724487304687,-0.42391845703125064,-1.3186079406738282,-0.18417437374591827,-0.655716598033905,0.7421141266822815
1778958004.7253966,-4.1094044494628905,-0.5263055419921869,-1.1690689086914063,-0.4638257324695587,-0.8086971640586853,0.3964959383010864
1778958004.7441533,-3.0999037170410157,-0.25761428833007827,-1.3201048278808594,-0.7435253262519836,-0.8682987689971924,0.09476634860038757
1778958004.7622204,-2.7593618774414064,0.364492034912109,-2.022294616699219,-0.5847033858299255,-0.5071912407875061,0.08867166936397552
1778958004.7778034,-3.1127769470214846,0.4995112609863277,-1.8122813415527346,-0.19674812257289886,-0.16219650208950043,0.23335200548171997
1778958004.7965345,-3.340752868652344,0.4451742553710929,-0.8946894836425782,-0.1491011530160904,-0.0918486937880516,0.42395925521850586
1778958004.8156664,-3.660487976074219,-0.43634262084960973,0.6456074523925781,-0.2737003564834595,-0.2389441281557083,0.4122442901134491
1778958004.8341198,-2.767445068359375,-0.5962101745605466,1.5064672851562502,-0.6367138624191284,-0.5580525398254395,0.3694687783718109
1778958004.8533702,-2.11001220703125,-0.05239105224609375,0.817749481201172,-0.8423161506652832,-0.6886528730392456,0.3203144669532776
1778958004.8758118,-1.6857943725585938,0.04580474853515604,-0.37197647094726566,-0.8448774814605713,-0.3951371908187866,0.34723684191703796
1778958004.8986723,-1.5612533569335938,-0.2204914855957032,-0.26240432739257813,-0.8664700984954834,0.1274842917919159,0.4209173023700714
1778958004.9164407,-1.8486557006835938,-0.44861709594726484,1.1897259521484376,-0.9325536489486694,-0.10063528269529343,0.28485727310180664
1778958004.9366927,-2.335892486572266,-1.2154724121093743,2.772085418701172,-1.086194634437561,-0.5186256766319275,0.07504959404468536
1778958004.9556048,-1.9714004516601564,-1.245110778808593,1.9468515014648438,-1.0724340677261353,-0.5521284937858582,-0.04515218362212181
1778958004.975833,-1.44898681640625,-0.5757028198242189,1.0797047424316406,-1.0121660232543945,-0.0493156835436821,-0.20095624029636383
1778958004.9955513,-1.7738113403320312,-0.4709207153320314,1.300345916748047,-0.9842466115951538,0.08746486902236938,-0.179813414812088
1778958005.0136118,-2.4640260314941407,-0.3424877929687504,1.7455201721191407,-0.7389018535614014,0.16450844705104828,-0.046323683112859726
1778958005.0311165,-3.410058746337891,-1.2184661865234379,2.669249267578125,-0.5666227340698242,-0.11301416903734207,0.011101135984063148
1778958005.0481029,-3.606300659179688,-1.4132112121582026,3.0325437927246095,-0.773369550704956,-0.43835270404815674,-0.07917952537536621
1778958005.0658612,-2.870580596923828,-0.9442364501953122,3.054548034667969,-0.9602646827697754,-0.52839595079422,-0.08033400028944016
1778958005.0827374,-2.6526338195800783,-0.30790969848632876,2.8201354980468754,-1.1211771965026855,-0.4844455122947693,-0.00797284860163927
1778958005.0998323,-3.0693672180175784,-0.11855346679687528,3.124153289794922,-0.9349411129951477,-0.45265069603919983,0.2023293673992157
1778958005.1148727,-3.27399169921875,-0.038619689941405966,3.2790811157226565,-0.7217822074890137,-0.49601802229881287,0.44338786602020264
1778958006.2207153,0.6385720825195312,-2.9511131286621097,10.316995697021484,0.2430184930562973,0.5913953185081482,-0.1554737389087677
1778958006.2483501,0.43379791259765627,-2.3538551330566406,9.137298889160157,0.2068174183368683,0.7689835429191589,-0.17859211564064026
1778958006.2693255,-0.058977355957031255,-2.2748194885253907,9.423803100585937,0.3368586301803589,0.8562266826629639,0.10835974663496017
1778958006.2903044,-0.9090596008300782,-2.715802459716797,10.268197174072267,0.09404776990413666,0.5571914911270142,0.1899176836013794
1778958006.3082578,-1.1088940429687502,-3.0425729370117187,10.183772735595703,-0.04096144437789917,0.38742613792419434,0.13268958032131195
1778958006.3285773,-0.7973918151855469,-3.0267059326171877,9.063801727294923,0.2197256088256836,0.5491492748260498,0.07811582088470459
1778958006.3489923,-0.27078689575195314,-2.9205766296386724,8.028404846191407,0.6325545310974121,0.7944797277450562,0.15191373229026794
1778958006.3686004,-0.1754351806640625,-2.752625885009766,8.766519927978516,0.6583966612815857,0.5453909039497375,0.3427213728427887
1778958006.3880649,-0.3399430847167969,-3.0388307189941406,9.497899017333985,0.35986223816871643,0.04480190575122833,0.47447851300239563
1778958006.405947,-0.22228775024414063,-3.5531611633300786,8.962163085937501,0.24002373218536377,-0.14017753303050995,0.49227002263069153
1778958006.4231045,-0.1531315612792969,-3.8875657653808595,7.7838134765625,0.21367669105529785,-0.2182251513004303,0.4047383964061737
1778958006.4400172,-0.219144287109375,-3.8363722229003905,7.141199798583985,0.5738627314567566,0.09739933907985687,0.23972220718860626
1778958006.4617352,-0.35296600341796874,-3.266956329345703,6.834637298583985,1.0158517360687256,0.3497227728366852,0.15406370162963867
1778958006.4805348,-0.6180647277832032,-3.4910403442382814,7.252418518066406,1.077418327331543,0.23570473492145538,0.011842302978038788
1778958006.5027008,-0.9746232604980469,-3.7503012084960936,6.86173095703125,1.0179988145828247,0.08290649950504303,-0.17089581489562988
1778958006.5430548,-1.1032058715820312,-2.4218138122558592,5.759722595214844,1.2092293500900269,0.5055999159812927,-0.21928074955940247
1778958006.5632384,-1.4507830810546876,-2.138153686523437,6.3936543273925786,1.0660622119903564,0.5401363968849182,-0.04405144602060318
1778958006.583901,-1.7365388488769533,-2.5405169677734376,6.78030029296875,0.773744523525238,0.37216252088546753,0.11175338178873062
1778958006.6045766,-2.036814422607422,-3.076252899169922,6.317762145996094,0.6255292296409607,0.3161546289920807,0.20239166915416718
1778958006.623317,-2.356399841308594,-3.529210968017578,6.111491088867187,0.7658833265304565,0.3035454750061035,0.2599295675754547
1778958006.644333,-2.262694702148438,-3.9613623046875004,5.988446960449219,0.8259913921356201,0.13803154230117798,0.2920220196247101
1778958006.662729,-1.8905685424804688,-4.130959625244141,5.076992340087891,0.8010704517364502,0.0745619535446167,0.34890636801719666
1778958006.680539,-1.7760566711425783,-4.414320373535157,4.221521301269531,0.8264076113700867,0.19314421713352203,0.38484007120132446
1778958006.6985884,-1.8904188537597657,-4.661007385253907,3.6142341613769533,0.9252818822860718,0.4512271285057068,0.3790220618247986
1778958006.7164874,-1.9522402954101563,-4.6800178527832035,3.416794738769531,0.9982944130897522,0.6787416338920593,0.4060790538787842
1778958006.7347832,-1.9943028259277344,-5.07504638671875,3.484454040527344,0.9511560797691345,0.6991552114486694,0.4590209424495697
1778958006.7539096,-1.93278076171875,-5.518873443603516,3.626808013916016,0.8843989372253418,0.6403467655181885,0.4723255932331085
1778958006.775083,-1.5301181030273439,-5.598657531738281,3.3256343078613284,0.6283354163169861,0.6236951351165771,0.35544028878211975
1778958006.7950966,-1.3239967346191408,-5.4848941040039065,2.9171337890625,0.6670074462890625,0.8207395076751709,0.1475912630558014
1778958006.8152816,-1.529219970703125,-5.0674122619628905,2.8982730102539063,0.8618926405906677,1.097823143005371,0.01610714942216873
1778958006.8352592,-1.8495538330078125,-4.003873901367188,2.928959197998047,1.025235891342163,1.2814381122589111,-0.05029691755771637
1778958006.8531222,-2.378404083251953,-3.638633422851563,3.4615516662597656,1.0387599468231201,1.2810943126678467,-0.0635199025273323
1778958006.8724408,-2.6803262329101565,-3.309168548583984,3.4925372314453127,0.9677956700325012,1.1656239032745361,-0.07260530441999435
1778958006.8937979,-2.7512786865234378,-2.9554541015625,3.1569351196289066,0.8581868410110474,1.0113791227340698,0.007595352362841368
1778958006.912287,-2.815046081542969,-2.483186187744141,2.915636901855469,0.7466101050376892,0.9205067157745361,0.1380254328250885
1778958006.9349487,-2.881058807373047,-2.1601579284667967,2.985092468261719,0.5666487216949463,0.8128647804260254,0.25989723205566406
1778958007.9899094,-1.936373291015625,-1.4093193054199222,3.191363525390625,0.050250228494405746,1.3298420906066895,0.21501024067401886
1778958008.0117857,-2.2845492553710938,-0.8301736450195314,3.972289581298828,0.09536627680063248,1.2979023456573486,0.32134824991226196
1778958008.0367148,-2.3668780517578125,-0.9455836486816409,4.3279499816894536,-0.07767126709222794,1.0200767517089844,0.3976804316043854
1778958008.0638413,-2.2170396423339844,-1.2582833862304685,3.8730459594726563,-0.3336237668991089,0.49988120794296265,0.38977712392807007
1778958008.0827494,-2.005978546142578,-1.289119262695312,2.956651611328125,-0.26887813210487366,0.3901026248931885,0.35858777165412903
1778958008.1033666,-1.941013641357422,-1.178050231933593,2.3875350952148438,-0.02653132751584053,0.4721921384334564,0.35628071427345276
1778958008.1238184,-1.9291882324218752,-1.1671229553222648,2.3005659484863283,0.08454600721597672,0.6026610136032104,0.278296560049057
1778958008.1445878,-2.027234344482422,-1.0615924072265628,2.5846751403808597,0.026683855801820755,0.6076098680496216,0.19348877668380737
1778958008.163928,-2.113155670166016,-0.9032217407226568,3.0725106811523437,-0.15469405055046082,0.3863684833049774,0.18860428035259247
1778958008.183015,-1.9955003356933594,-0.8984317016601562,2.8050169372558593,-0.2531487047672272,0.17602090537548065,0.2093810886144638
1778958008.2058325,-1.6937278747558595,-0.7385641479492193,2.4900718688964845,-0.07969752699136734,0.17576563358306885,0.2962680757045746
1778958008.2261453,-1.7092955017089844,-0.7447013854980469,2.7427464294433594,-0.00859011709690094,0.1465483158826828,0.3119751811027527
1778958008.2451365,-1.7212705993652344,-0.9937834167480464,2.9105474853515627,0.014968989416956902,-0.06712504476308823,0.20828436315059662
1778958008.2654302,-1.526675262451172,-0.9223818969726558,2.4770489501953126,0.050980813801288605,-0.1065826341509819,0.16533544659614563
1778958008.2857878,-1.2662168884277345,-0.6930587768554695,1.8055453491210938,0.17221282422542572,0.04284755885601044,0.20720960199832916
1778958008.3214536,-1.485959930419922,-0.2871029663085931,2.139949951171875,0.31261110305786133,0.2202553153038025,0.28350168466567993
1778958008.3446357,-1.6976197814941407,-0.07708969116210973,2.7882518005371093,0.13722392916679382,-0.06398710608482361,0.3231281340122223
1778958008.3649144,-1.5881973266601563,0.5631289672851558,2.6066793823242187,0.03585048019886017,-0.16375771164894104,0.48884883522987366
1778958008.3823915,-1.4449452209472657,0.8831634521484375,2.28005859375,0.01811501942574978,-0.14409072697162628,0.5639893412590027
1778958008.4033823,-1.3630654907226563,0.7610174560546881,2.167342987060547,0.07868169248104095,-0.015382824465632439,0.6279036402702332
1778958008.4247441,-1.3284873962402344,0.46882507324218814,2.4767495727539064,0.17075736820697784,0.038434095680713654,0.4939267337322235
1778958008.4450712,-1.1527528381347656,0.5836363220214835,2.5035438537597656,0.22682708501815796,0.14583715796470642,0.39902016520500183
1778958008.464438,-1.0298583984375,0.9509724426269539,2.474803619384766,0.2453741878271103,0.30261167883872986,0.38910481333732605
1778958008.4838529,-1.046473846435547,0.8144563293457026,2.459235992431641,0.18050062656402588,0.4474007189273834,0.3444179892539978
1778958008.5058107,-1.180594940185547,0.31748977661132827,2.67523681640625,0.1361382156610489,0.44631001353263855,0.3573172390460968
1778958008.523152,-1.3126203918457031,-0.22378463745117116,2.857407989501953,0.16936750710010529,0.3343161344528198,0.40573981404304504
1778958008.542692,-1.1837384033203127,-0.9458830261230471,2.8699818420410157,0.14415229856967926,0.25805044174194336,0.409379243850708
1778958008.5620399,-0.6294410705566407,-1.5388000488281257,2.30161376953125,0.05485876649618149,0.17096027731895447,0.3845156729221344
1778958008.5816166,-0.11570938110351563,-1.829794921875,1.8317408752441406,0.04188312217593193,0.20981715619564056,0.33924034237861633
1778958008.6022348,0.14609619140625002,-2.0472926330566406,1.841470642089844,-0.0338347926735878,0.2926824390888214,0.21350887417793274
1778958008.622478,0.204774169921875,-1.7422270202636714,2.1742286682128906,-0.0798005759716034,0.37258297204971313,0.07101153582334518
1778958008.6417089,0.02604583740234375,-1.560055847167968,2.9903315734863285,-0.09338618814945221,0.31946542859077454,0.028231527656316757
1778958008.66354,0.1251397705078125,-1.4061758422851565,3.3120126342773437,-0.09886655956506729,0.11228262633085251,-0.17830513417720795
1778958008.683522,0.3603007507324219,-1.258882141113281,3.0190718078613283,0.009695704095065594,0.18098101019859314,-0.3200560212135315
1778958008.7021272,0.6653663635253907,-0.5825885009765628,2.497855682373047,0.18205773830413818,0.4323761761188507,-0.43546417355537415
1778958008.721894,0.531544647216797,0.02484832763671818,2.5729994201660156,0.2340664267539978,0.5725029110908508,-0.4880790710449219
1778958008.7407298,0.15238311767578125,0.48678771972656243,3.000660095214844,0.29055166244506836,0.762243390083313,-0.5004817843437195
1778958008.7617493,-0.2902464294433594,0.7833210754394528,3.6717146301269534,0.2109241485595703,0.6086095571517944,-0.23029683530330658
1778958008.7829173,-0.37931121826171876,0.8361611938476567,3.8778359985351565,-0.04477367922663689,0.2836143374443054,0.038002729415893555
1778958008.8013473,-0.2621049499511719,0.3279679870605463,3.438948669433594,-0.20487236976623535,0.1518564671278,0.13669398427009583
1778958008.8174274,-0.030835876464843752,-0.20971389770507898,2.7006838989257815,-0.36252808570861816,0.0299907848238945,0.24700357019901276
1778958008.8375711,0.1585203552246094,-0.6759942626953119,2.156266021728516,-0.2925650477409363,0.06592036783695221,0.27557721734046936
1778958008.8567488,0.2820135498046875,-1.0274633789062495,1.8119819641113282,-0.12157377600669861,0.1709040403366089,0.22094759345054626
1778958008.8807092,0.3826043701171875,-1.1867321777343758,1.5528707885742188,0.011930830776691437,0.32989025115966797,0.12509140372276306
1778958008.9025176,0.4087998962402344,-0.9523196411132808,1.548380126953125,0.14614535868167877,0.49861854314804077,0.05091384798288345
1778958008.9236248,0.29907806396484377,-0.8422984313964843,1.7464183044433594,0.07313038408756256,0.5563096404075623,0.008893037214875221
1778958008.9463475,0.023351440429687502,-0.4420307922363289,2.2673350524902345,0.027514494955539703,0.4942943751811981,0.04400094598531723
1778958008.966828,-0.053738250732421874,-0.49741561889648445,2.3114932250976565,-0.024677056819200516,0.38201120495796204,0.012144317850470543
1778958008.9893117,-0.02903961181640625,-0.21704864501953125,1.9007473754882813,-0.046999990940093994,0.42174065113067627,0.002477029338479042
1778958009.012178,-0.0461041259765625,0.10732681274414091,1.854942626953125,-0.006330134812742472,0.5098454356193542,0.12725088000297546
1778958009.0301685,-0.24638763427734375,-0.03996688842773466,2.0899539184570313,-0.038408175110816956,0.4756496548652649,0.09437442570924759
1778958009.051451,-0.21644989013671875,-0.21600082397460874,1.9441571044921877,-0.05168430134654045,0.4836955964565277,0.05256626754999161
1778958009.0737836,-0.23980133056640626,-0.06421646118164048,1.7820442199707032,0.05577251315116882,0.5535895228385925,0.007180654443800449
1778958009.0969436,-0.511336669921875,-0.04161346435546953,2.2110520935058595,0.0854470282793045,0.5374962091445923,-0.07081734389066696
1778958009.1171641,-0.4409829711914063,0.33964370727539084,2.041604461669922,0.11011414974927902,0.5938339233398438,-0.04101978987455368
1778958009.13748,-0.08966354370117188,0.5345384216308595,2.352058868408203,0.00927778985351324,0.48527708649635315,0.0419333353638649
1778958009.1607325,-0.0940045166015625,0.30805938720703097,2.119741973876953,-0.2556930482387543,0.45687466859817505,-0.05749636888504028
1778958009.1835384,-0.2963836669921875,0.549507293701172,2.195185089111328,-0.3603706955909729,0.7367314696311951,-0.17755448818206787
1778958009.2067592,-0.9246272277832032,0.6192622375488277,2.964585113525391,-0.3487091660499573,0.9199106693267822,-0.16955618560314178
1778958009.2299964,-1.3678555297851562,0.49307464599609396,3.862717437744141,-0.3819677233695984,0.7722671627998352,0.008838806301355362
1778958009.2511194,-1.5834072875976564,-0.16375946044921896,4.404590606689453,-0.43118104338645935,0.3637290596961975,0.1174120083451271
1778958009.2724926,-1.4316229248046877,-1.0509645080566408,3.891757049560547,-0.4157593548297882,0.1121496930718422,0.11356434226036072
1778958009.2947884,-0.7870632934570313,-1.7453704833984371,1.8562898254394533,-0.2697448134422302,0.23733286559581757,0.06408088654279709
1778958009.313717,-0.7021897888183594,-1.8606307983398436,1.4947915649414063,-0.07606489211320877,0.5279843807220459,-0.00987725704908371
1778958010.419298,-0.40625518798828125,-0.7056326293945308,3.3425491333007815,-0.20784689486026764,1.8156238794326782,0.5655551552772522
1778958010.4413729,-0.2851570129394531,-0.9499246215820314,3.0910720825195312,-0.258266419172287,1.8073102235794067,0.5622406005859375
1778958010.4650223,-0.22019210815429688,-1.1246113586425786,2.930456085205078,-0.15663859248161316,1.8407838344573975,0.5037955045700073
1778958010.48454,-0.07978408813476563,-1.2632231140136714,3.2825239562988284,-0.22610849142074585,1.7363404035568237,0.38640275597572327
1778958010.5064538,-0.0688568115234375,-0.9418414306640628,3.690425720214844,-0.37069272994995117,1.6413484811782837,0.29875466227531433
1778958010.5276144,-0.25641677856445316,-0.5712121582031244,4.01689682006836,-0.4373381435871124,1.5872291326522827,0.30521902441978455
1778958010.549794,-0.5956114196777345,-0.6617738342285158,4.335584106445313,-0.38734108209609985,1.4873552322387695,0.317582905292511
1778958010.5686202,-0.6267466735839844,-0.8107141113281244,4.37375473022461,-0.293630987405777,1.2941033840179443,0.3062121272087097
1778958010.5901144,-0.5370831298828125,-0.9366023254394538,3.948040008544922,-0.2285962998867035,1.2030030488967896,0.20387020707130432
1778958010.61195,-0.5090913391113282,-0.6012995910644534,3.5753150939941407,-0.06722259521484375,1.3305013179779053,0.18385037779808044
1778958010.6310356,-0.7840695190429688,-0.5188211059570307,3.9844143676757815,-0.0011421283707022667,1.2804608345031738,0.2048344612121582
1778958010.6561224,-0.9410929870605469,-0.4056564331054684,4.050127716064454,0.05035736411809921,1.1434999704360962,0.23859570920467377
1778958010.6777484,-1.176104278564453,-0.6562353515625006,4.296365661621094,0.03458162397146225,0.887947678565979,0.19460083544254303
1778958010.7164373,-1.0687774658203126,-0.4721182250976561,3.5916311645507815,0.10303551703691483,0.7941349148750305,0.20197166502475739
1778958010.7371454,-0.9550140380859375,-0.8412506103515618,3.1027478027343753,0.13774080574512482,0.7541269063949585,0.3448171615600586
1778958010.761288,-0.9422904968261719,-0.8150550842285149,3.0027557373046876,0.011474765837192535,0.6347134113311768,0.3782031536102295
1778958010.7809691,-1.064436492919922,-0.9455836486816409,3.2527359008789065,-0.11221441626548767,0.45619747042655945,0.387806236743927
1778958010.8026645,-0.980760498046875,-0.8208929443359381,2.916984100341797,-0.11267530918121338,0.4183233082294464,0.438917338848114
1778958010.8247566,-1.0111473083496094,-0.8851094055175786,2.4706123352050784,0.005366181954741478,0.4924304187297821,0.40225836634635925
1778958010.8446503,-1.1003617858886718,-0.9888436889648435,2.374512176513672,0.17122724652290344,0.6011269092559814,0.2886882722377777
1778958010.869369,-1.2913645935058595,-0.6215075683593749,2.6836193847656253,0.2842540442943573,0.6165918111801147,0.21256732940673828
1778958010.8893878,-1.4543756103515626,-0.36553985595703153,3.0361363220214845,0.1717318445444107,0.5370470285415649,0.20123857259750366
1778958010.907027,-1.6334033203125,-0.19519409179687486,3.0395791625976565,0.12225786596536636,0.5183756947517395,0.21696923673152924
1778958010.925471,-1.7759069824218752,-0.25237518310546925,3.075055389404297,0.0988636240363121,0.4798954129219055,0.2545233368873596
1778958010.943196,-1.7274078369140626,-0.4601431274414054,3.1228060913085938,0.07499850541353226,0.4069437086582184,0.24433940649032593
1778958010.9635,-1.4892530822753907,-0.5275030517578116,3.0560449218750003,0.05397941172122955,0.335399866104126,0.20749078691005707
1778958010.984622,-1.0481204223632814,-0.3957769775390627,2.7990293884277344,0.008729238063097,0.3562179505825043,0.09161306917667389
1778958011.0030043,-1.00351318359375,-0.15896942138671832,2.5670118713378907,0.01695234328508377,0.6019601821899414,-0.04435879364609718
1778958011.0236323,-1.2472064208984375,0.1782792663574213,3.240012359619141,0.14428822696208954,0.7601814866065979,-0.05003950372338295
1778958011.051675,-0.88855224609375,-0.2806663513183594,3.7868252563476563,0.164649099111557,0.5096871852874756,0.042332347482442856
1778958011.0714142,-0.21210891723632813,-0.6144721984863288,3.0289512634277345,0.06003466993570328,0.4552711248397827,-0.018449854105710983
1778958011.0902498,0.05313949584960938,-0.6674620056152349,2.667902069091797,0.029928216710686684,0.6436245441436768,-0.08228747546672821
1778958011.111848,0.26315277099609374,-0.5219645690917964,2.4197181701660155,0.05177224799990654,0.8855721950531006,-0.038427744060754776
1778958011.1297503,0.07379653930664062,-0.34383499145507734,2.762505340576172,0.06484708189964294,0.9602928161621094,0.0665430948138237
1778958011.1493902,-0.188009033203125,-0.6355783081054689,3.2364198303222658,0.03421565517783165,0.8403339982032776,0.1069227084517479
1778958011.1705008,-0.11780502319335938,-0.9101074218750007,3.1365774536132816,0.047460608184337616,0.7446229457855225,0.10239625722169876
1778958011.1911144,0.3811074829101563,-0.9967771911621099,2.459235992431641,0.10009939223527908,0.8405900001525879,0.05481325462460518
1778958011.2099745,0.846639404296875,-0.8240364074707038,1.8245558166503908,0.11404765397310257,1.1557643413543701,0.02864178642630577
1778958011.2310722,0.4818479919433594,-0.2354603576660157,2.1378543090820314,0.1681855320930481,1.4753994941711426,0.06553121656179428
1778958011.2537782,-0.20043319702148438,-0.08637039184570305,2.917882232666016,0.26007649302482605,1.4962284564971924,0.16366805136203766
1778958011.2777116,-0.4667294311523438,-0.2174977111816414,3.164718933105469,0.3272312581539154,1.2577521800994873,0.26725679636001587
1778958011.2962284,-0.19399658203125,-0.11286529541015611,2.7738816833496096,0.22682558000087738,1.2224501371383667,0.3876959979534149
1778958011.3147602,0.21345611572265627,-0.030536499023437358,2.2035676574707033,0.14233572781085968,1.2481157779693604,0.4608626365661621
1778958011.3341522,0.3288661193847656,-0.27692413330078125,2.1586610412597658,-0.09406102448701859,1.2900409698486328,0.5816463232040405
1778958011.3553288,0.2667453002929688,-0.6161187744140619,2.3249652099609377,-0.3031948506832123,1.2560811042785645,0.637622594833374
1778958011.3719347,0.14205459594726563,-0.7123686218261724,2.448608093261719,-0.35075142979621887,1.2072731256484985,0.6487089395523071
1778958011.3867965,0.10493179321289063,-0.6882687377929688,2.448608093261719,-0.24085892736911774,1.1967854499816895,0.6478409767150879
1778958011.4039564,0.17917739868164062,-0.6680607604980473,2.2504202270507814,-0.17270416021347046,1.2284103631973267,0.6321659088134766
1778958011.4238489,0.23531066894531252,-0.6243516540527345,2.2254222106933597,-0.11740564554929733,1.301439881324768,0.5860989093780518
1778958011.4445426,0.1580712890625,-0.5409750366210933,2.3334974670410156,-0.14210832118988037,1.3064298629760742,0.5093346238136292
1778958011.4654508,-0.06960525512695313,-0.41029678344726506,2.416425018310547,-0.10487350821495056,1.1969692707061768,0.5100081562995911
1778958011.4850137,-0.2070195007324219,-0.4188290405273438,2.4956103515625,-0.1078278124332428,1.11855149269104,0.469140887260437
1778958011.5048704,-0.0940045166015625,-0.30431716918945284,1.9952009582519532,-0.08467955142259598,1.1502186059951782,0.4528510272502899
1778958011.542014,-0.18172210693359375,-0.3281176757812503,1.8814375305175781,-0.0758930966258049,1.1116522550582886,0.45066288113594055
1778958011.5667083,-0.03906875610351563,-0.42781036376953097,1.1520043945312501,0.03921065852046013,1.2819409370422363,0.36976152658462524
1778958011.5862734,-0.16091537475585938,-0.5237608337402335,1.227597198486328,0.12577195465564728,1.356225848197937,0.3252318203449249
1778958011.609761,-0.23231689453125,-0.2275268554687493,1.593586120605469,0.15224525332450867,1.3491770029067993,0.35162296891212463
1778958011.6318738,-0.13112731933593752,-0.14849121093750028,1.8362315368652344,0.07122175395488739,1.3429315090179443,0.3524744212627411
1778958011.6535301,-0.053438873291015626,-0.21016296386718736,1.8588345336914063,-0.04201491177082062,1.3746216297149658,0.35056671500205994
1778958011.6741214,-0.18770965576171875,-0.24144790649414105,2.1203407287597655,0.07452835142612457,1.349888801574707,0.37563297152519226
1778958011.6971447,-0.2656974792480469,-0.3405418395996094,2.4363336181640625,0.14721620082855225,1.3106461763381958,0.3581368029117584
1778958011.719361,0.18202148437500001,-0.04655319213867237,2.6315277099609378,0.2162773460149765,1.2428011894226074,0.38214394450187683
1778958011.7419798,0.8851094055175782,0.1826202392578118,2.6899063110351564,0.18273331224918365,1.0685454607009888,0.37787237763404846
1778958011.7677047,0.6491999816894531,0.37511993408203104,1.9252963256835938,-0.12391441315412521,1.4624137878417969,0.007833503186702728
1778958011.793491,-0.5816903686523438,1.049766998291016,2.8502229309082034,-0.1635298728942871,1.8746824264526367,-0.011857355944812298
1778958011.8129833,-1.7474661254882813,0.7593708801269532,4.575684814453125,-0.1683317869901657,1.4843295812606812,0.1753292679786682
1778958011.8324764,-1.575623474121094,-0.13801300048828047,4.468058624267578,-0.32331016659736633,1.1434924602508545,0.33464744687080383
1778958011.8509817,-0.7408094787597657,-0.6336323547363278,2.947221221923828,-0.36747896671295166,1.114013910293579,0.4104063808917999
1778958011.869812,-0.6348298645019531,-1.5136523437499996,2.292183380126953,-0.40590453147888184,1.1589339971542358,0.4501558840274811
1778958011.8932037,-0.7934999084472657,-2.0049307250976565,2.1547691345214846,-0.3050016760826111,1.2270097732543945,0.396518737077713
1778958011.9117656,-1.0018666076660157,-2.4596850585937498,2.3044578552246096,-0.050373125821352005,1.2728347778320312,0.22910699248313904
1778958011.933163,-0.8116122436523437,-2.1357586669921877,1.9881655883789064,0.5016152262687683,1.665279746055603,-0.05974939465522766
1778958011.9525616,-0.5929170227050782,-1.139430541992187,1.913321228027344,0.5712528824806213,2.1403048038482666,-0.11123500764369965
1778958012.0051823,-2.8005262756347657,1.4187496948242195,5.573360137939454,-0.012618077918887138,2.0231738090515137,0.21437373757362366
1778958012.0255146,-3.2587234497070314,1.4004876708984373,6.217021636962891,-0.1302925944328308,1.4212870597839355,0.4471558630466461
1778958012.047429,-2.1880000305175784,0.22632934570312457,3.7347335815429688,-0.13650868833065033,1.1918576955795288,0.6055232286453247
1778958012.0675359,-1.4650035095214844,-0.931512908935547,2.062860260009766,-0.027760986238718033,1.3229576349258423,0.6054234504699707
1778958012.0874753,-1.1756552124023438,-1.679956512451172,1.3465997314453126,0.11128928512334824,1.5689070224761963,0.500129759311676
1778958012.107552,-1.3251942443847657,-1.7254618835449218,1.4651531982421875,0.2608206868171692,1.7222734689712524,0.39912569522857666
1778958012.1280549,-1.53041748046875,-1.4690451049804683,1.7229171752929688,0.3329339921474457,1.7532685995101929,0.30712631344795227
1778958012.148898,-1.7019607543945314,-0.9777667236328131,1.7570462036132812,0.36999866366386414,1.7608522176742554,0.24849671125411987
1778958012.1696362,-1.7700691223144531,-0.45116180419921825,1.772164764404297,0.3451736867427826,1.7724531888961792,0.3035140335559845
1778958012.195293,-1.7777032470703127,-0.23366409301757862,2.0040325927734375,0.039656609296798706,1.6968501806259155,0.48761826753616333
1778958012.215946,-1.8793418884277344,-0.4885839843749995,2.1071681213378906,-0.1297537237405777,1.504367470741272,0.5734860301017761
1778958012.2370226,-1.6890875244140626,-0.6556365966796882,1.6223263549804687,-0.12779200077056885,1.3801056146621704,0.604640543460846
1778958012.261913,-1.5548167419433594,-0.7424560546874996,1.3434562683105469,-0.03178063780069351,1.410080075263977,0.5756319761276245
1778958012.2830627,-1.4594650268554688,-0.6044430541992192,1.4211447143554687,0.0462905615568161,1.4261082410812378,0.5854940414428711
1778958012.3033452,-1.3599220275878907,-0.519419860839843,1.6119978332519531,0.09131039679050446,1.3895963430404663,0.5400568246841431
1778958012.323338,-1.3045372009277345,-0.4716691589355477,2.069147186279297,0.11970207095146179,1.2821449041366577,0.46554550528526306
1778958012.345106,-1.127904510498047,0.09490264892578182,2.045196990966797,0.22127187252044678,1.2686606645584106,0.4466913342475891
1778958012.3665345,-1.1451187133789062,0.3008743286132809,2.2086570739746096,0.30643007159233093,1.2911462783813477,0.40349075198173523
1778958012.3867385,-0.8536747741699219,0.52495834350586,2.5530908203125002,0.25263604521751404,1.2013851404190063,0.34297171235084534
1778958012.4112701,-0.7042854309082032,0.6623725891113281,2.4370820617675784,-0.021741054952144623,1.2060874700546265,0.16584086418151855
1778958012.4372451,-1.071471862792969,1.1582913208007817,2.5394691467285155,-0.07958073168992996,1.4121136665344238,0.13485828042030334
1778958012.460172,-1.7342935180664063,0.9080117797851557,3.2551309204101564,-0.03315442055463791,1.3916137218475342,0.26677775382995605
1778958012.4807332,-1.8878741455078125,0.18471588134765682,3.446732482910156,0.01018873043358326,1.1416351795196533,0.3990132808685303
1778958012.500882,-1.4687457275390625,-0.7448510742187509,2.7592121887207033,0.0038775913417339325,1.0116149187088013,0.4703212082386017
1778958012.5223732,-0.6845265197753907,-1.3633648681640622,1.7823435974121096,-0.03321123123168945,1.0353891849517822,0.5018450021743774
1778958012.5456095,-0.09071136474609376,-1.7832417297363286,1.4732363891601563,-0.160310760140419,1.079004168510437,0.45962101221084595
1778958012.5721784,-0.008232879638671876,-1.8497035217285154,1.434467010498047,-0.24188224971294403,1.1547677516937256,0.23955534398555756
1778958013.9887214,-0.9249266052246095,-0.5093907165527352,1.847757568359375,-0.1661844700574875,0.49626195430755615,0.363182932138443
1778958014.0070236,-1.1304492187500002,-0.7879614257812495,1.7775535583496094,0.05299660563468933,0.2739350497722626,0.16706545650959015
1778958014.0267804,-0.9084608459472656,-0.7973918151855468,1.4349160766601563,0.23908796906471252,0.26357653737068176,0.0856270119547844
1778958014.0464296,-0.6493496704101562,-0.7114704895019539,1.3335768127441407,0.3331323564052582,0.2981826364994049,0.006657467223703861
1778958014.066739,-0.41433837890625,-0.5128335571289071,1.4031820678710938,0.280741423368454,0.33102133870124817,-0.016998879611492157
1778958014.0873384,-0.20986358642578126,-0.389190673828125,1.5019766235351564,0.1579662263393402,0.35529351234436035,-0.013876497745513916
1778958014.10867,-0.05254074096679688,-0.36389328002929666,1.6700770568847658,0.030294371768832207,0.40158408880233765,-0.022680744528770447
1778958014.1296644,-0.20582199096679688,-0.36703674316406243,1.7263600158691408,0.009255930781364441,0.47672757506370544,-0.0814114362001419
1778958014.150184,-0.4507127380371094,-0.0818797302246086,1.854942626953125,0.029953356832265854,0.5479300022125244,-0.07716940343379974
1778958014.171313,-0.4692741394042969,0.24623794555663991,2.2447320556640626,-0.003957726992666721,0.5513511896133423,-0.020297059789299965
1778958014.1950066,-0.43080413818359375,0.20088226318359403,2.356549530029297,-0.04791486635804176,0.50547856092453,0.06479320675134659
1778958014.2140784,-0.44023452758789067,-0.13022918701171804,2.034419403076172,-0.09387457370758057,0.45155102014541626,0.11658648401498795
1778958014.232088,-0.47660888671875,-0.5114863586425784,1.555565185546875,-0.12357621639966965,0.40717121958732605,0.14981552958488464
1778958014.2543104,-0.3802093505859375,-0.7833210754394528,1.1870315551757813,-0.16587574779987335,0.38787224888801575,0.1535714864730835
1778958014.2731779,-0.3028202819824219,-0.7595205688476572,0.7828720092773438,-0.1619068682193756,0.4302312433719635,0.14873448014259338
1778958014.2971706,-0.23082000732421876,-0.7788304138183602,0.7423063659667969,-0.1517833173274994,0.49083730578422546,0.11778680980205536
1778958014.317252,-0.31943572998046876,-0.6209088134765626,0.8773255920410157,-0.11716006696224213,0.5577483773231506,0.058831553906202316
1778958014.3382626,-0.4501139831542969,-0.3183879089355468,1.0635383605957032,-0.055129267275333405,0.5643402338027954,0.07343190908432007
1778958014.3595495,-0.5863307189941407,-0.10927276611328196,1.3630654907226563,-0.043262582272291183,0.5237026214599609,0.11548847705125809
1778958014.3786821,-0.4858895874023438,-0.17902770996093764,1.3476475524902345,-0.08231138437986374,0.5155415534973145,0.15387499332427979
1778958014.4005053,-0.4592449951171875,-0.3800596618652339,1.205892333984375,-0.08678094297647476,0.5642837285995483,0.13195660710334778
1778958014.4216273,-0.67300048828125,-0.49591873168945355,0.9743238830566406,-0.01824992708861828,0.7279245853424072,0.06832651793956757
1778958014.4465806,-1.175804901123047,-0.2165995788574211,1.4593153381347657,0.13501158356666565,0.8594324588775635,0.06551593542098999
1778958014.4664214,-1.7293537902832032,-0.1142124938964848,1.8878741455078125,0.15817883610725403,0.8004393577575684,0.14981672167778015
1778958014.486948,-1.8652711486816407,-0.21480331420898402,1.4036311340332033,0.06317869573831558,0.8039199709892273,0.25062432885169983
1778958014.5067856,-1.5033238220214844,-0.530197448730469,0.6053411865234375,-0.13858242332935333,0.9319772720336914,0.23675861954689026
1778958014.5294735,-1.5693365478515626,-0.6819818115234373,0.12274475097656251,-0.40570250153541565,1.2860090732574463,0.11060769110918045
1778958014.552993,-3.2051348876953125,0.3022215270996096,1.2153227233886719,-0.7061927318572998,1.5764917135238647,0.1970900148153305
1778958014.5769649,-4.231400756835938,0.22617965698242237,2.633174285888672,-0.9652830958366394,1.483889102935791,0.4700455069541931
1778958014.6783757,-4.181255035400391,-3.1234048461914066,0.5599855041503906,-0.5026791095733643,2.692896604537964,1.0987727642059326
1778958014.7055492,-3.2626153564453126,-3.830534362792969,2.478396148681641,0.05643767863512039,2.7444028854370117,0.7834431529045105
1778958014.7218978,-2.951861572265625,-3.4628988647460943,3.411555633544922,0.07504363358020782,2.6432971954345703,0.7653974294662476
1778958014.7405727,-2.6009912109375,-3.207230529785156,3.4408946228027344,-0.11685415357351303,2.345303535461426,0.8537612557411194
1778958014.7747705,-2.0052301025390626,-4.043092346191407,2.2793101501464843,-0.7960638403892517,1.8957619667053223,1.0501924753189087
1778958014.796372,-1.3222004699707033,-5.015021209716797,1.0577005004882813,-1.4386354684829712,1.7779412269592285,1.2583290338516235
1778958014.8165581,-0.945883026123047,-6.301446075439453,0.4884342956542969,-1.6934837102890015,1.8687260150909424,1.3276290893554688
1778958014.8372886,-1.0391390991210938,-7.221882019042969,0.13397140502929689,-1.655012845993042,2.0023815631866455,1.2839971780776978
1778958014.8615751,-1.7545014953613283,-8.491541748046876,0.7632627868652344,-1.5766323804855347,2.0213606357574463,1.2156370878219604
1778958014.882297,-1.8227595520019533,-8.720116424560548,0.40191421508789066,-1.5521615743637085,2.0713744163513184,1.1411292552947998
1778958014.902254,-1.9037411499023438,-8.951834564208985,0.4535568237304688,-1.8162202835083008,2.265195369720459,1.0560394525527954
1778958014.9212043,-2.075284423828125,-8.835526428222657,0.8937913513183594,-1.9739593267440796,2.4493660926818848,1.0952224731445312
1778958014.9447799,-2.543361053466797,-8.963360595703126,2.5800347900390626,-2.5600054264068604,2.1689436435699463,1.3272744417190552
1778958014.9642184,-2.8096572875976564,-9.375902709960938,3.566932525634766,-3.194648265838623,2.068578004837036,1.3325049877166748
1778958014.9842286,-2.6402096557617187,-9.90624984741211,3.902534637451172,-3.689289093017578,2.217390775680542,1.1978909969329834
1778958015.00551,-2.3734643554687502,-9.892628173828125,4.26073974609375,-3.8287384510040283,2.5244696140289307,0.9369843602180481
1778958015.0285401,-2.642754364013672,-8.125552825927734,7.460336151123047,-3.788313627243042,2.429746627807617,0.9360595345497131
1778958015.0515127,-2.4908203125,-7.6784326171875,9.572444000244142,-3.66463041305542,2.0000736713409424,0.8567094802856445
1778958015.0689006,-2.1585113525390627,-7.417225799560548,10.491233367919923,-3.3386220932006836,1.7238094806671143,0.2142172008752823
1778958015.086926,-2.950514373779297,-5.862109680175782,11.996802520751954,-2.571340322494507,1.145931363105774,-0.37547510862350464
1778958015.1079404,-2.8800109863281254,-4.623585205078125,11.606114959716798,-2.477468729019165,0.8025361895561218,-0.43100684881210327
1778958015.1281993,-2.3035597229003906,-3.3290771484375004,10.914104003906251,-2.4763596057891846,1.6924082040786743,0.12270013242959976
1778958015.1492176,-3.522624664306641,-4.854704589843751,12.45215560913086,-1.7983464002609253,2.317298650741577,0.289929062128067
1778958015.169203,-4.007017364501953,-6.602769470214844,14.015953674316407,-1.1980360746383667,1.8589251041412354,-0.06112084165215492
1778958015.1923294,-3.772904205322266,-5.726192321777344,14.543905792236329,-0.6286828517913818,0.5640449523925781,-0.2305525243282318
1778958015.2144918,-3.1570848083496097,-4.860692138671875,12.675042114257813,-0.0875406563282013,0.13125430047512054,-0.20844461023807526
1778958015.2357495,-2.785108337402344,-4.449048156738281,10.980565795898437,-0.40153735876083374,0.8464118242263794,-0.17093849182128906
1778958015.2557194,-2.9223728942871094,-3.6866835021972655,14.149925079345703,-1.215483546257019,0.7376672625541687,0.6345813274383545
1778958015.274888,-3.25004150390625,-4.260440368652344,15.186070404052735,-1.963327407836914,-0.06437085568904877,1.0504019260406494
1778958015.2941353,-3.593128051757813,-6.74482406616211,15.495776367187501,-2.5833516120910645,-0.7328608632087708,0.694958508014679
1778958015.3141866,-2.342478790283203,-7.699688415527344,14.579831085205079,-2.7050023078918457,-0.4375581741333008,0.21853351593017578
1778958015.3326225,-2.1345611572265626,-7.929310913085938,13.9725439453125,-2.4193081855773926,0.35270652174949646,0.021454256027936935
1778958015.3522248,-1.9737954711914063,-7.189100189208984,15.448175354003906,-1.9788837432861328,0.8731349110603333,0.3303547501564026
1778958015.3737128,-2.2267694091796875,-8.60575424194336,16.98832260131836,-1.1664586067199707,0.7009710073471069,0.3301539421081543
1778958015.3956451,-2.2050645446777346,-11.04912322998047,15.984959106445313,-0.5477085709571838,0.26298952102661133,-0.3927675187587738
1778958015.4156163,-0.8032296752929687,-9.14942367553711,16.8274072265625,-1.1978942155838013,0.4282323122024536,-0.8064222931861877
1778958015.436195,-1.4781761169433594,-8.558153228759766,18.65196304321289,-1.8921115398406982,0.3321581184864044,-0.4726170301437378
1778958015.4559124,-2.698139190673828,-10.125394134521486,18.005607147216796,-1.3579694032669067,-0.21911783516407013,0.1639818400144577
1778958015.4788513,-4.084107055664063,-13.454471282958984,15.725398864746095,-0.6015614867210388,-0.689031720161438,0.018901647999882698
1778958015.5005116,-3.5787579345703127,-13.155542907714844,13.236075439453126,-0.437113493680954,-0.30941060185432434,-0.1860162913799286
1778958015.520165,-3.253634033203125,-12.586276702880859,11.501033477783203,-0.4793506860733032,0.03744325414299965,-0.37431833148002625
1778958015.543779,-2.9937744140625,-11.842323760986329,9.609566802978517,-0.06462916731834412,0.3502238690853119,-0.5747679471969604
1778958015.5627995,-3.073857879638672,-11.209739227294921,6.923253021240234,0.8305624723434448,0.87429279088974,-0.8062337040901184
1778958015.5815172,-3.4585578918457034,-10.35651351928711,5.687872009277344,1.9544676542282104,0.8912973403930664,-0.9695742726325989
1778958015.6020956,-2.5619224548339843,-9.034013671875,5.940845947265625,2.4753050804138184,0.6878372430801392,-0.8746031522750854
1778958015.619354,-2.2240750122070314,-7.83889892578125,5.019062805175781,1.5497007369995117,1.190575361251831,-0.2510767877101898
1778958015.6390793,-1.0195298767089844,-6.7157844543457035,5.899831237792969,0.00497234333306551,1.9128761291503906,0.5522104501724243
1778958015.661737,-1.3356724548339844,-7.000342712402344,9.09538604736328,-0.3131125271320343,1.1903302669525146,1.1916710138320923
1778958015.681791,-2.6966423034667972,-9.300010528564453,11.484268341064453,0.24966096878051758,-0.4089944064617157,1.057785987854004
1778958015.7092795,-3.549269256591797,-11.577674102783204,12.14080307006836,0.3499321937561035,-1.339333176612854,0.415205180644989
1778958015.7289586,-1.8803897094726563,-9.310788116455079,9.403894500732422,-0.3159652352333069,-0.5469654202461243,0.3202742338180542
1778958015.7519,-1.324146423339844,-8.264014892578125,8.092022552490235,-0.19413882493972778,0.5424619913101196,0.5915651917457581
1778958015.7743957,-3.852089538574219,-10.450068969726564,10.41728713989258,0.8263092637062073,0.6743582487106323,0.5371740460395813
1778958015.7916453,-4.10745849609375,-10.904823303222656,12.006981353759766,1.1602578163146973,-0.22063006460666656,0.19915445148944855
1778958015.809708,-3.7715570068359376,-10.730286254882813,11.649524688720703,0.5291542410850525,-1.1700713634490967,-0.09030656516551971
1778958015.8289154,-2.183209991455078,-9.02248764038086,9.7189892578125,0.1674131155014038,-1.603385090827942,0.04414430633187294
1778958015.8506186,-1.1286529541015626,-7.868836669921875,6.929390258789063,0.3438642621040344,-1.6324299573898315,0.23442557454109192
1778958015.8724787,-1.5681390380859377,-8.700058135986328,7.285499725341797,0.6831839084625244,-1.7707659006118774,0.1278776228427887
1778958015.8968694,-1.4709910583496095,-9.110205230712891,7.518714752197266,0.6664927005767822,-1.671707034111023,-0.3488185405731201
1778958015.917462,-0.9901908874511719,-9.88559280395508,7.527396697998047,0.7763350605964661,-1.3822088241577148,-0.6841832399368286
1778958015.93655,-0.7339237976074219,-10.021809539794923,8.21776107788086,1.2919129133224487,-1.187129020690918,-0.8759691715240479
1778958015.9568038,-0.47017227172851567,-8.407117309570314,9.182804260253906,1.3887730836868286,-0.9609459638595581,-0.6117449998855591
1778958015.9774537,-0.6053411865234375,-7.759713592529297,10.881771240234375,0.6753201484680176,-0.5832602381706238,-0.38332465291023254
1778958015.9971957,-0.784368896484375,-9.267079010009766,11.826007690429687,0.007818074896931648,-0.37678107619285583,-0.6513053774833679
1778958016.0259688,-2.063159637451172,-11.10420867919922,14.139297180175783,-0.1569918543100357,-0.6920544505119324,-1.038325548171997
1778958016.048157,-2.113604736328125,-9.501341857910157,13.671519927978517,0.637220025062561,-1.391943335533142,-0.8591598272323608
1778958016.0692658,-0.8190966796875,-8.314010925292969,11.301797790527344,-0.12109297513961792,-1.1622852087020874,-0.7777218222618103
1778958016.0908644,0.21420455932617188,-7.775879974365235,9.626930694580079,-1.4118136167526245,-1.031446933746338,-0.7934818863868713
1778958016.1103778,-0.0059875488281250005,-8.505462799072266,9.836644592285158,-1.6132972240447998,-0.49370333552360535,-0.7521798610687256
1778958016.1306868,-1.4548246765136719,-5.590574340820313,22.61317565917969,0.4181681275367737,-0.847591757774353,-0.29723745584487915
1778958016.1495962,-5.5395304870605475,-7.0715945434570315,21.93164291381836,2.6668479442596436,-1.8748468160629272,-0.4997955858707428
1778958017.2793715,-2.3547532653808596,-1.5432907104492184,1.923050994873047,1.5446723699569702,0.9689123630523682,-1.1321572065353394
1778958017.2985597,-2.5725503540039063,-0.6682104492187495,3.047662353515625,1.3068875074386597,1.086843490600586,-0.9646499752998352
1778958017.3192587,-2.7328669738769533,-0.3062631225585939,4.59604248046875,0.5538796782493591,0.828458845615387,-0.7388579845428467
1778958017.3388844,-2.7069708251953126,-0.12603790283203153,5.156177673339844,0.16458889842033386,0.6806116104125977,-0.6091490387916565
1778958017.3596096,-2.4837849426269534,0.17723144531250057,5.036576385498047,-0.36943718791007996,0.41850388050079346,-0.10669563710689545
1778958017.3830926,-2.441423034667969,-0.22573059082031222,5.285658416748047,-0.4329395592212677,0.15859980881214142,0.1938208043575287
1778958017.4026332,-2.511028289794922,-0.6715036010742192,5.193150787353516,-0.5989656448364258,-0.15605387091636658,0.2800779342651367
1778958017.4594424,-2.6625132751464844,-1.9841239929199217,4.549938354492188,-0.6850091218948364,-0.3188866078853607,0.18903377652168274
1778958017.4818497,-2.401905212402344,-2.231559448242187,4.026925964355469,0.03442581370472908,-0.2824331820011139,0.037308719009160995
1778958017.5038223,-2.1107606506347656,-2.3921754455566404,4.440665588378907,-0.2036772221326828,-0.593085527420044,0.052549492567777634
1778958017.5236886,-2.129322052001953,-2.7571165466308596,4.306993560791016,-0.37277185916900635,-0.9356598258018494,-0.060813289135694504
1778958017.5444787,-2.0085232543945315,-2.736459503173828,3.8721478271484377,-0.46498316526412964,-1.0032275915145874,-0.31551212072372437
1778958017.5648735,-2.2646406555175784,-2.1154010009765623,3.5745666503906253,-0.15427377820014954,-0.8590366244316101,-0.37416577339172363
1778958017.583616,-2.9569509887695316,-1.9702029418945317,4.777315521240235,0.2936222553253174,-1.0955160856246948,-0.39231786131858826
1778958017.6333685,-3.3043785095214844,-1.6829502868652337,3.980223083496094,0.5041740536689758,-1.3897995948791504,-0.2495756447315216
1778958017.686888,-4.277055816650391,-2.1408480834960937,4.0549177551269535,0.5040544867515564,-1.3001669645309448,-0.3512381911277771
1778958017.710081,-6.271358642578125,-1.400038604736329,5.614524536132813,1.782747745513916,-0.5515964031219482,-0.5156517624855042
1778958017.740824,-5.8158558654785155,-1.4091696166992183,4.818928985595703,1.5031667947769165,-0.7126060724258423,-0.211650088429451
1778958017.7627835,-4.841531982421875,-2.0475920104980467,2.7798692321777345,0.7083001732826233,-0.5740885734558105,0.23329925537109375
1778958017.7798753,-4.644841003417969,-2.4278013610839846,2.355052642822266,0.4729623794555664,-0.28944531083106995,0.32736736536026
1778958017.7992318,-4.746180267333985,-2.6583219909667974,2.4932153320312502,0.5370201468467712,-0.026906272396445274,0.25229933857917786
1778958017.8211782,-4.52703598022461,-2.1263282775878904,3.038980407714844,0.6939588189125061,0.08208195865154266,0.2027357518672943
1778958017.8401146,-3.9020855712890627,-1.7121395874023442,2.691702575683594,0.68719083070755,0.18114431202411652,0.24725082516670227
1778958017.8585675,-3.56618408203125,-1.725910949707032,2.4768992614746095,0.4039476215839386,0.36669641733169556,0.23984067142009735
1778958017.8774052,-3.262914733886719,-1.9922071838378903,2.0520826721191407,0.2809932231903076,0.682891309261322,0.1920541375875473
1778958017.8975542,-4.066144409179688,-2.1743783569335937,3.0457164001464845,0.47096535563468933,0.7249656915664673,0.14397716522216797
1778958017.9158585,-4.55772216796875,-1.831291809082031,3.691772918701172,0.6615107655525208,0.5515997409820557,0.24178853631019592
1778958017.9343853,-4.2980122375488286,-1.505569152832031,3.4158966064453127,0.3703244626522064,0.35290560126304626,0.35299015045166016
1778958017.9531097,-3.4576597595214844,-1.4269825744628903,2.5776397705078127,0.08369804173707962,0.3399527966976166,0.395666241645813
1778958017.9736938,-3.130140838623047,-1.251996459960937,1.9429595947265625,-0.38877227902412415,0.5936446785926819,0.5005863904953003
1778958017.9950852,-3.3919464111328126,-1.343905334472657,2.4626788330078124,-0.45459863543510437,0.5757772922515869,0.46584993600845337
1778958018.013613,-3.883224792480469,-1.5974780273437492,3.3617092895507814,-0.32758066058158875,0.30492478609085083,0.3833731412887573
1778958018.0384197,-3.7115318298339846,-1.398392028808594,2.7439439392089846,-0.07955631613731384,0.22652781009674072,0.32576173543930054
1778958018.0601697,-2.887944488525391,-0.8699908447265621,1.2002041625976563,0.058312565088272095,0.442190021276474,0.2802661955356598
1778958018.0796096,-2.6226960754394533,-0.5866300964355471,1.0515632629394531,-0.020113062113523483,0.7863650918006897,0.26919251680374146
1778958018.0981116,-2.9666807556152346,-0.9225315856933598,1.706451416015625,-0.12481321394443512,0.8759803175926208,0.2834251821041107
1778958018.1185155,-3.2576756286621094,-1.2548405456542966,2.591560821533203,-0.15338365733623505,0.6251339316368103,0.2949584424495697
1778958018.1401186,-2.73750732421875,-1.134191436767578,2.144739990234375,-0.08977527916431427,0.3077790439128876,0.30643779039382935
1778958018.1583595,-1.5569123840332033,-0.6158193969726558,0.841849365234375,-0.19937454164028168,0.3701305091381073,0.36054322123527527
1778958018.1766582,-1.150806884765625,-0.3118016052246091,0.607137451171875,-0.47422850131988525,0.6286658048629761,0.36457812786102295
1778958018.1962256,-0.8071215820312501,-0.3128494262695316,0.8583151245117188,-0.6534722447395325,0.7619776725769043,0.2979912757873535
1778958018.2157118,-1.1030561828613281,-0.32048355102539006,2.362237701416016,-0.5657848119735718,0.36570873856544495,0.24001024663448334
1778958018.2357743,-1.415306854248047,-0.1526824951171868,4.071084136962891,-0.5049950480461121,-0.2936704158782959,0.24303019046783447
1778958018.2563865,-0.8683442687988282,0.9012757873535158,3.011138305664063,-0.5687471628189087,-0.3383246064186096,0.2140072137117386
1778958018.2768667,-0.4848417663574219,1.6769627380371102,0.9861492919921876,-0.5271129012107849,0.39360061287879944,0.0362432487308979
1778958018.2962875,-1.7431251525878908,1.2919633483886717,2.654579772949219,0.16251195967197418,0.9370574355125427,-0.05406700447201729
1778958018.3142178,-2.935096435546875,0.9134005737304687,4.458029479980469,0.9737329483032227,0.33176207542419434,-0.1493348926305771
1778958018.3343215,-3.6853363037109377,0.5525010681152338,6.7386868286132815,1.050191044807434,-0.6557971239089966,-0.22735336422920227
1778958018.3552384,-2.4313938903808596,0.6915618896484368,5.195545806884766,0.4965725243091583,-0.8628674149513245,-0.19218306243419647
1778958018.3796024,-2.0841160583496094,1.718725891113282,4.892575836181641,0.12958674132823944,-0.59391188621521,-0.08108365535736084
1778958018.4024363,-1.7305513000488282,1.8952088928222661,7.262896728515625,0.335266649723053,-1.1517285108566284,0.5234860777854919
1778958018.4204733,-1.2880714416503907,-0.12888198852539112,5.718408508300781,0.4928792417049408,-1.2784278392791748,0.4415959417819977
1778958018.4411764,-0.6797364807128906,-0.89813232421875,2.4698638916015625,0.6742165684700012,-0.628046989440918,-0.009289506822824478
1778958018.4611092,-0.5460644531250001,0.3113525390625007,1.3717474365234377,0.25803977251052856,-0.2100915014743805,0.006663241423666477
1778958018.4785848,-1.725461883544922,1.463506622314453,3.7009039306640625,-0.06560452282428741,-0.2899843156337738,0.10012993961572647
1778958018.4971247,-2.427202606201172,1.5051200866699226,4.863835601806641,-0.7172476649284363,-0.7031811475753784,0.2911019027233124
1778958018.5195339,-2.227218475341797,0.734372863769531,4.067341918945313,-0.8740403056144714,-0.85020911693573,0.35109344124794006
1778958018.5368614,-2.215692443847656,0.3391946411132807,3.234024810791016,-0.4651349186897278,-0.6188863515853882,0.29225587844848633
1778958018.5560706,-2.548600158691406,0.4355941772460934,3.5943255615234375,-0.07089094817638397,-0.44801339507102966,0.2188354730606079
1778958018.57424,-2.3796015930175782,0.7015910339355464,3.630550231933594,-0.016932614147663116,-0.5413474440574646,0.17835412919521332
1778958018.593838,-1.8290464782714844,0.7611671447753903,3.1666648864746096,-0.16462299227714539,-0.6964526176452637,0.20293864607810974
1778958018.6137724,-1.5748750305175783,0.6709048461914069,2.844684448242188,-0.30325207114219666,-0.614373505115509,0.22334972023963928
1778958018.632659,-1.29091552734375,0.5078938293457025,2.4974066162109376,-0.2592274844646454,-0.4273485243320465,0.23351576924324036
1778958018.6503403,-1.5130535888671877,0.13561798095703104,2.9291088867187502,-0.1413905918598175,-0.37779030203819275,0.24352486431598663
1778958018.6687691,-1.6525634765625001,-0.04460723876953132,3.2445030212402344,-0.17396369576454163,-0.5064051151275635,0.27250435948371887
1778958018.6870677,-1.3900094604492188,-0.12049942016601634,3.4958303833007816,-0.30269795656204224,-0.597967267036438,0.2909637987613678
1778958018.7064056,-0.7936495971679688,-0.09624984741210874,3.5428326416015627,-0.6428505182266235,-0.6877567172050476,0.34576454758644104
1778958018.7269373,-0.33485366821289064,-0.65863037109375,3.288212127685547,-0.7900601029396057,-0.4755563735961914,0.2885867953300476
1778958018.7487197,-0.42122406005859375,-1.0559042358398436,3.5717225646972657,-0.657860517501831,-0.21501639485359192,0.2128349393606186
1778958018.7667127,-0.7336244201660157,-1.4386582946777349,3.8121226501464847,-0.3316159248352051,-0.1154797151684761,0.15190456807613373
1778958018.7858777,-0.6057902526855469,-1.4676979064941413,3.861819305419922,-0.101475290954113,-0.19951386749744415,0.04101843386888504
1778958018.8078501,-0.21809646606445313,-0.9358538818359374,4.2731639099121095,-0.17095568776130676,-0.4468977153301239,0.029602186754345894
1778958018.827835,0.34503250122070317,-0.5513035583496091,4.703518981933594,-0.39570337533950806,-0.6858850717544556,0.1291814148426056
1778958018.8509886,0.7325765991210937,-1.2894186401367183,4.782255249023438,-0.31802260875701904,-0.6650738716125488,0.07672885805368423
1778958018.8682613,0.8303233337402344,-2.208058319091797,4.462669830322266,0.07094414532184601,-0.46957919001579285,-0.06804946064949036
1778958018.8864663,0.9047186279296875,-2.516267395019532,4.087998962402344,0.28458935022354126,-0.3812873959541321,-0.1189613789319992
1778958018.9041643,0.8280780029296876,-1.976040802001953,4.16299301147461,0.5184875130653381,-0.3179378807544708,-0.15860570967197418
1778958018.922934,0.7590715026855469,-1.5986755371093757,4.336182861328125,0.4484062194824219,-0.3729240298271179,-0.07191804051399231
1778958018.9431295,0.6288423156738282,-2.418071594238281,3.9910006713867188,0.3255902826786041,-0.46522292494773865,-0.038252588361501694
1778958018.9615848,0.6471043395996094,-2.805166625976563,3.4730776977539066,0.4100551903247833,-0.3848258852958679,-0.07405032962560654
1778958018.9789002,0.41119491577148437,-3.1461575317382815,3.0061985778808595,0.7208747863769531,-0.31935223937034607,-0.055629629641771317
1778958018.998029,0.307760009765625,-3.2415092468261717,2.800825653076172,0.9723291993141174,-0.344364732503891,-0.03364316746592522
1778958019.016327,0.3998185729980469,-2.8075616455078123,2.741997985839844,1.0039031505584717,-0.36968567967414856,-0.013646867126226425
1778958019.0344045,0.20178039550781252,-2.6673033142089846,2.708168334960938,0.8260207772254944,-0.4592649042606354,-0.04069194942712784
1778958019.0550077,0.27303222656250004,-2.8937823486328123,2.1610560607910156,0.468391090631485,-0.4792751371860504,-0.1530098170042038
1778958019.0741029,0.18965560913085938,-2.8675868225097654,1.8143769836425783,0.348300963640213,-0.41290801763534546,-0.23563867807388306
1778958019.0933387,0.2540217590332031,-2.7605593872070315,1.893113250732422,0.5097446441650391,-0.3712576925754547,-0.19345572590827942
1778958019.1117778,0.5635780334472656,-2.4912693786621096,1.9892134094238283,0.6916594505310059,-0.4184172749519348,-0.1149403378367424
1778958019.131333,0.5680686950683594,-2.3415806579589846,1.8826350402832033,0.5178210735321045,-0.45272383093833923,-0.12053269892930984
1778958019.1505163,0.4219725036621094,-2.225871276855469,1.6317567443847658,0.13558214902877808,-0.35760262608528137,-0.233486607670784
1778958019.168523,0.14115646362304687,-1.7384848022460933,1.701661376953125,-0.010704485699534416,-0.334060937166214,-0.2700212895870209
1778958019.1885664,0.21016296386718752,-1.4555731201171884,2.2001248168945313,0.07236895710229874,-0.3728610575199127,-0.25723734498023987
1778958019.2073083,0.5116360473632813,-1.2091854858398445,2.0803738403320313,0.10973071306943893,-0.2944028377532959,-0.21554504334926605
1778958019.226475,0.659827880859375,-1.0934761047363288,1.5090119934082031,0.0072134556248784065,-0.28724753856658936,-0.13731282949447632
1778958019.2460861,0.28919860839843753,-0.7575746154785161,1.6410374450683594,-0.15226352214813232,-0.3299851715564728,-0.15180321037769318
1778958019.2665727,-0.030386810302734376,-0.6042933654785152,2.1975801086425784,-0.23690807819366455,-0.3217479884624481,-0.2310211956501007
1778958019.2883358,-0.18232086181640625,-0.28246261596679645,2.733914794921875,-0.11936289072036743,-0.4186778962612152,-0.15641731023788452
1778958019.3102198,-0.0520916748046875,-0.2369572448730466,2.9895831298828126,-0.07112212479114532,-0.5651216506958008,-0.08828407526016235
1778958019.3318577,0.36284545898437504,-0.6002517700195309,2.354154510498047,-0.18007950484752655,-0.6266581416130066,-0.1284785270690918
1778958019.3515244,0.3062631225585938,-0.8011340332031249,1.8529966735839845,-0.11781232059001923,-0.42453843355178833,-0.232354998588562
1778958020.45587,-1.981728973388672,-0.0787362670898446,3.021466827392578,0.2543834447860718,-0.38605797290802,0.307422399520874
1778958020.4792423,-1.3936019897460938,-0.26315277099609347,2.4963587951660156,0.04110034555196762,-0.555712103843689,0.2325155884027481
1778958020.5019603,-1.210532684326172,0.15687377929687507,1.2003538513183594,0.1693267673254013,-0.22527962923049927,0.18221014738082886
1778958020.5256143,-1.9260447692871094,0.32302825927734347,1.0376422119140625,0.3462321162223816,0.3735339045524597,0.11152558773756027
1778958020.546511,-2.6255401611328124,0.3835025024414058,2.0932470703125,0.3966640830039978,0.6897829174995422,0.08922425657510757
1778958020.568814,-2.8963270568847657,0.2956352233886719,2.9846434020996093,0.35003894567489624,0.3735949397087097,0.33226481080055237
1778958020.594099,-1.956431579589844,-0.27018814086914134,2.2537133789062502,0.2075825035572052,0.19586198031902313,0.4931411147117615
1778958020.6127422,-1.440454559326172,-0.7161108398437506,1.5473323059082031,0.05192577838897705,0.11616409569978714,0.5858502984046936
1778958020.6333342,-1.0870394897460938,-1.1770024108886723,0.8375083923339844,-0.08756229281425476,0.18282969295978546,0.533191978931427
1778958020.6529388,-1.054706726074219,-1.4057267761230463,0.43260040283203127,-0.1219414547085762,0.3197440505027771,0.41347309947013855
1778958020.674475,-1.0677296447753908,-1.4325210571289055,0.3757186889648438,0.031517259776592255,0.48077592253685,0.2873196005821228
1778958020.6961813,-0.983155517578125,-1.2476554870605465,0.5658233642578125,0.24564985930919647,0.6144950985908508,0.20359919965267181
1778958020.7147932,-0.7617658996582032,-0.9644444274902337,0.8264314270019532,0.2764589488506317,0.7163368463516235,0.16495515406131744
1778958020.7348323,-0.6782395935058594,-0.6957531738281251,1.1064990234375,0.18185506761074066,0.7402185201644897,0.17506143450737
1778958020.7611792,-0.6489006042480469,-0.31883697509765696,0.9434880065917969,-0.014608067460358143,0.8002980351448059,0.16609756648540497
1778958020.785462,-0.6744973754882813,-0.31210098266601527,0.9187893676757813,-0.09868370741605759,0.9205913543701172,0.16737502813339233
1778958020.810275,-0.6468049621582032,-0.29189300537109375,1.0708731079101563,-0.11134134232997894,1.0500775575637817,0.3099699318408966
1778958020.8382554,-0.40850051879882815,-0.6258485412597654,1.4418017578125,-0.12525877356529236,0.9986475706100464,0.3907698094844818
1778958020.9235144,0.8936416625976563,-1.1261082458496094,1.5462844848632813,-0.29591456055641174,0.9805382490158081,0.558110237121582
1778958020.9483361,0.980610809326172,-1.3570779418945307,1.3838722229003908,-0.2534266710281372,0.943252682685852,0.4281730055809021
1778958020.9684732,1.2431648254394532,-1.2067904663085933,0.868194580078125,-0.24478469789028168,1.11039400100708,0.352458655834198
1778958020.986703,1.3085787963867188,-0.8144563293457026,0.8024812316894532,-0.2074490636587143,1.2619608640670776,0.4101376235485077
1778958021.0100863,0.9797126770019532,-0.4519102478027346,1.517244873046875,-0.23820559680461884,1.239298939704895,0.4462691843509674
1778958021.032672,0.749491424560547,-0.6474037170410156,1.8766474914550781,-0.4467383921146393,1.0773162841796875,0.33213016390800476
1778958021.0552337,0.5372328186035157,-0.3971241760253914,1.7691709899902344,-0.6602382659912109,1.0992074012756348,0.2664984166622162
1778958021.079345,-0.05134323120117188,-0.07469467163085852,1.8253042602539062,-0.6226040720939636,1.3018025159835815,0.2849581241607666
1778958021.102778,-0.4218228149414063,-0.005987548828125355,2.533780975341797,-0.6537213325500488,1.365431308746338,0.2732662260532379
1778958021.1225824,-1.2069401550292969,-0.42122406005859325,3.27399169921875,-0.8278592228889465,1.2845590114593506,0.240564227104187
1778958021.146173,-1.5498770141601563,-0.5706134033203121,3.690126342773438,-0.9253166317939758,0.9910239577293396,0.27813389897346497
1778958021.168981,-1.605561218261719,-0.8782237243652347,3.5485208129882815,-0.8017894625663757,0.7726765275001526,0.2709985673427582
1778958021.1913784,-1.6905844116210937,-1.164129180908203,2.919379119873047,-0.6641865968704224,0.7293671369552612,0.14199978113174438
1778958021.2147727,-1.969753875732422,-1.1790980529785156,2.573298797607422,-0.4556027054786682,0.9331772923469543,-0.03644498437643051
1778958021.237007,-2.2194346618652343,-1.0448272705078132,2.621947631835938,-0.4340951442718506,1.0423799753189087,-0.07111956924200058
1778958021.261751,-2.3165826416015625,-0.8460406494140624,3.1380743408203124,-0.5179263353347778,1.0228240489959717,-0.060517001897096634
1778958021.288803,-2.1881497192382815,-0.8074209594726565,3.4887950134277346,-0.6492151021957397,0.8201864957809448,-0.022913750261068344
1778958021.3110793,-1.9402651977539063,-0.9241781616210947,3.374133453369141,-0.6805586218833923,0.7372273206710815,-0.023550130426883698
1778958021.331355,-1.8898200988769531,-0.9351054382324211,3.2825239562988284,-0.6422725915908813,0.7180110216140747,-0.01835653930902481
1778958021.3514109,-1.811832275390625,-0.8851094055175786,3.488196258544922,-0.6330502033233643,0.6618413329124451,-0.04379245638847351
1778958021.374758,-1.699116668701172,-0.7417076110839851,3.686084747314453,-0.6162223815917969,0.5692867040634155,-0.043825820088386536
1778958021.3972862,-1.6444802856445313,-0.7833210754394528,3.7215609741210938,-0.45849016308784485,0.48282739520072937,-0.04590708762407303
1778958021.4193304,-1.5545173645019532,-0.7270381164550788,3.610342254638672,-0.21258129179477692,0.5274304151535034,-0.0670449510216713
1778958021.4418185,-1.6646882629394533,-0.7442523193359367,3.8553826904296877,0.017501065507531166,0.47754204273223877,-0.13218814134597778
1778958021.468418,-1.4900015258789063,-0.6048921203613276,3.9221438598632816,0.00183176901191473,0.3548617660999298,-0.11182499676942825
1778958021.4933734,-1.251397705078125,-0.5267546081542971,3.6477644348144533,-0.11520252376794815,0.32441848516464233,-0.08840849250555038
1778958021.5126479,-1.2904664611816408,-0.4941224670410165,3.839964752197266,-0.14716650545597076,0.2887061834335327,-0.0017986330203711987
1778958021.5328803,-1.435814208984375,-0.6188131713867193,4.117637329101563,-0.04200848191976547,0.15697672963142395,0.08259886503219604
