timestamp,AccX,AccY,AccZ,GyroX,GyroY,GyroZ
1778807362.5892706,-1.0147398376464845,-9.260792083740235,2.907254333496094,0.11044320464134216,-0.09669198095798492,0.01489143818616867
1778807362.6083918,-1.0325527954101563,-9.243727569580079,3.2220497131347656,0.06554967164993286,-0.17453137040138245,-0.007733470294624567
1778807362.6271074,-0.8931925964355469,-9.388027496337891,3.4563125610351566,-0.027219489216804504,-0.16503401100635529,-0.014800388365983963
1778807362.646993,-0.738863525390625,-9.392817535400392,3.5690281677246096,-0.10960371047258377,-0.16788187623023987,0.007504387758672237
1778807362.6674972,-0.8698411560058594,-9.244476013183593,3.2178584289550782,-0.1241859421133995,-0.15159370005130768,0.04471990466117859
1778807362.6901,-1.146016845703125,-9.21364013671875,3.0886770629882814,-0.10847090184688568,-0.19341732561588287,0.029544953256845474
1778807362.709143,-1.1910731506347656,-9.272916870117188,3.140619049072266,-0.10359570384025574,-0.20003265142440796,0.007686070632189512
1778807362.7288573,-0.9988728332519532,-9.370364227294923,3.1439122009277347,-0.12871502339839935,-0.13920728862285614,0.02395140752196312
1778807362.750613,-0.8822653198242187,-9.35539535522461,3.198099517822266,-0.17034505307674408,-0.10535258054733276,0.03118651919066906
1778807362.7717822,-0.8506809997558594,-9.24282943725586,3.1991473388671876,-0.16629177331924438,-0.1276974081993103,0.03885770961642265
1778807362.79182,-0.9466314697265625,-9.2208251953125,2.9352461242675782,-0.12949946522712708,-0.13440734148025513,0.04799575358629227
1778807362.812763,-1.0090516662597657,-9.273066558837892,2.946921844482422,-0.1171022430062294,-0.12784910202026367,0.0501522459089756
1778807362.837639,-0.9586065673828126,-9.331744537353517,3.1187644958496095,-0.14838145673274994,-0.16549812257289886,0.015471844002604485
1778807363.058053,-0.6249504089355469,-9.219627685546875,2.8496241760253906,-0.2615678906440735,0.05326100066304207,0.038088180124759674
1778807363.080833,-0.8719367980957031,-9.168284454345704,2.8120523071289063,-0.3105804920196533,0.12053922563791275,0.07795865833759308
1778807363.1001832,-1.1126362609863283,-9.308393096923828,2.9400361633300784,-0.36774560809135437,0.09885390847921371,0.045070990920066833
1778807363.1224244,-1.0536589050292968,-9.4220068359375,2.7247837829589847,-0.4033268690109253,0.08231226354837418,-0.020939283072948456
1778807363.1458583,-0.8894503784179688,-9.464967498779297,2.615061950683594,-0.4539937973022461,0.10060635954141617,-0.046787478029727936
1778807363.1662703,-0.8244854736328125,-9.496851196289063,2.674039306640625,-0.47910967469215393,0.07166067510843277,-0.059633925557136536
1778807363.1873853,-0.6147715759277345,-9.510023803710938,2.551893310546875,-0.4730876088142395,0.05682118237018585,-0.04167657345533371
1778807363.2095644,-0.5774990844726563,-9.504185943603517,2.412084045410156,-0.4854607582092285,0.045397575944662094,0.0034067141823470592
1778807363.2628653,-1.0969189453125001,-9.533824310302736,2.0996836853027343,-0.4943174719810486,0.10056223720312119,-0.16382348537445068
1778807363.2823684,-0.8419990539550781,-9.535321197509766,1.8276992797851563,-0.5058251619338989,0.1736556738615036,-0.180179625749588
1778807363.3019824,-0.7170089721679688,-9.533973999023438,1.7660275268554688,-0.5040960311889648,0.1860399842262268,-0.1970306634902954
1778807363.3216562,-0.5833369445800781,-9.555978240966798,1.8986517333984376,-0.5353984832763672,0.12272986024618149,-0.18920846283435822
1778807363.3439367,-0.5454656982421875,-9.72033645629883,1.6910334777832032,-0.5948787927627563,0.18296949565410614,-0.1791512668132782
1778807363.3632011,-0.7210505676269532,-9.657916259765626,1.379231872558594,-0.6020827889442444,0.22858849167823792,-0.1614406555891037
1778807363.38363,-0.5345384216308594,-9.542955322265625,1.1993060302734375,-0.5812692642211914,0.24007262289524078,-0.11960304528474808
1778807363.4267669,-0.45295806884765627,-9.564809875488281,1.2234059143066407,-0.6074471473693848,0.20416420698165894,-0.05853770673274994
1778807363.4516118,-0.5375321960449219,-9.57573715209961,1.1618838500976563,-0.7411380410194397,0.23567265272140503,0.04024924337863922
1778807363.4732745,-0.5641767883300781,-9.653724975585938,0.8640032958984375,-0.8325466513633728,0.26413920521736145,0.08752591907978058
1778807363.4942708,-0.6744973754882813,-9.938881988525392,0.7180567932128906,-0.8644152879714966,0.22538840770721436,0.08889598399400711
1778807363.5155916,-0.8797206115722657,-9.989776153564454,0.5155279541015625,-0.9026433825492859,0.26512107253074646,0.09742415696382523
1778807363.5353014,-0.9645941162109376,-9.96133529663086,0.4614903259277344,-0.9835638403892517,0.2766263484954834,0.08389128744602203
1778807363.5593436,-0.7188052368164063,-9.82526824951172,0.15971786499023438,-1.02178955078125,0.25379812717437744,0.07111452519893646
1778807363.5804806,-0.623902587890625,-9.557624816894531,0.03397933959960937,-1.0382856130599976,0.1730436086654663,0.16052377223968506
1778807363.602665,-0.7705975341796876,-9.4124267578125,-0.31344818115234374,-0.9958778619766235,0.20832547545433044,0.22737273573875427
1778807363.6244965,-1.3232482910156251,-9.82676513671875,-0.6327342224121094,-0.9404228925704956,0.29484230279922485,0.17198823392391205
1778807363.6446137,-1.2228071594238281,-9.87990463256836,-0.5875282287597656,-0.9507647752761841,0.2711932957172394,0.10659033805131912
1778807363.667805,-0.3501219177246094,-9.958341522216797,-0.46792694091796877,-1.0002758502960205,0.08250383287668228,0.09612537175416946
1778807363.6890655,-0.3350033569335938,-10.371183013916015,-0.8557704162597657,-1.0009227991104126,-0.006727572064846754,0.1717403680086136
1778807363.7103426,-0.6002517700195312,-10.392738189697265,-1.1401789855957032,-1.0387279987335205,0.04443327337503433,0.3116605877876282
1778807363.7314243,-1.3353730773925783,-10.258168029785157,-1.8423687744140627,-1.026803731918335,0.22820526361465454,0.3103952705860138
1778807363.7532604,-1.922901306152344,-9.814041595458985,-2.2712269592285157,-0.8777014017105103,0.25174960494041443,0.198569655418396
1778807363.7741456,-2.026336212158203,-9.766739959716798,-2.391427001953125,-0.8196845650672913,0.13728758692741394,0.06568626314401627
1778807363.7954574,-0.9210346984863281,-9.412127380371095,-2.559078369140625,-0.8707758784294128,0.06188350170850754,0.10244746506214142
1778807363.8174748,-0.9385482788085938,-9.91388397216797,-2.8728259277343753,-0.8083409667015076,0.05688440054655075,0.21719658374786377
1778807363.8389783,-1.3959970092773437,-10.391091613769532,-3.310216369628906,-0.5966947674751282,0.12346354871988297,0.1799813210964203
1778807363.86183,-1.3133688354492188,-10.433752899169923,-3.42727294921875,-0.5488765835762024,0.12482679635286331,0.07670264691114426
1778807363.8831353,-1.567240905761719,-10.785970458984375,-3.9342686462402345,-0.475077748298645,0.23322002589702606,-0.02475958690047264
1778807363.904113,-1.144519958496094,-11.067534942626954,-4.5566743469238284,-0.44592395424842834,0.2832178771495819,-0.08978240191936493
1778807363.9262466,-0.44262954711914065,-10.760673065185548,-4.6032275390625,-0.39684048295021057,0.23617935180664062,-0.028481164947152138
1778807363.9480596,-1.020128631591797,-10.765612792968751,-4.262835388183594,-0.3288480043411255,0.18532440066337585,0.0704609602689743
1778807363.970038,-2.0719912719726565,-10.647508392333984,-3.9830671691894532,-0.20741122961044312,0.12339837104082108,0.019430916756391525
1778807363.99106,-2.2552102661132816,-10.0830322265625,-3.518134002685547,-0.2521499693393707,0.025410868227481842,-0.032594554126262665
1778807364.012238,-1.6910334777832032,-9.505233764648438,-3.376827850341797,-0.2747802734375,-0.0027165361680090427,-0.01222076453268528
1778807364.0345666,-1.402283935546875,-9.45643524169922,-3.813619537353516,-0.16507403552532196,0.012676835060119629,0.0997759997844696
1778807364.054824,-1.839225311279297,-9.661209411621094,-3.744313659667969,-0.02135356143116951,-0.061056189239025116,0.11012545228004456
1778807364.0763469,-2.0686981201171877,-9.84592529296875,-3.5914814758300784,0.07982894778251648,-0.13978148996829987,0.06539395451545715
1778807364.0974507,-1.8553916931152346,-9.863887939453125,-3.37937255859375,0.14608025550842285,-0.16496120393276215,0.05220954865217209
1778807364.1205437,-1.4769786071777344,-9.734107818603515,-3.273692321777344,0.1680658906698227,-0.24601486325263977,0.05444754287600517
1778807364.1418948,-1.0421328735351563,-9.664502563476564,-3.35063232421875,0.1982278972864151,-0.2930523455142975,0.09230564534664154
1778807364.1644108,-1.2617262268066407,-9.765243072509767,-3.780388641357422,0.301718145608902,-0.31015685200691223,0.10858620703220367
1778807364.184823,-1.5371534729003906,-9.898915100097657,-3.6853363037109377,0.3924614191055298,-0.28985270857810974,0.09953960031270981
1778807364.208188,-1.7693206787109377,-9.944420471191407,-3.2862661743164066,0.3845140039920807,-0.22115729749202728,0.014944827184081078
1778807364.2308793,-1.6555572509765626,-9.74144256591797,-2.817740478515625,0.3240653872489929,-0.2750152051448822,0.004675168078392744
1778807364.2540767,-1.2978012084960937,-9.483079833984375,-3.111280059814453,0.3672410249710083,-0.35787782073020935,0.029161836951971054
1778807364.277399,-1.4974859619140626,-9.627529449462891,-3.4178425598144533,0.5155909061431885,-0.323007732629776,0.06848656386137009
1778807364.297176,-1.8676661682128908,-9.835596771240235,-3.15424072265625,0.5503403544425964,-0.2962343692779541,0.0385168120265007
1778807364.32005,-1.966161346435547,-9.771380310058595,-2.6831703186035156,0.5383199453353882,-0.33629918098449707,0.0020673838444054127
1778807364.3422308,-1.5539186096191406,-9.519454193115235,-2.551743621826172,0.5570850372314453,-0.4001115560531616,0.02536385878920555
1778807364.3644352,-1.4615606689453127,-9.483828277587891,-2.5468038940429687,0.6536572575569153,-0.37458351254463196,0.13341352343559265
1778807364.3864152,-1.7335450744628906,-9.526639251708986,-2.1451890563964846,0.7369667887687683,-0.37631338834762573,0.1805373877286911
1778807364.4058533,-2.1269270324707032,-9.656569061279297,-1.8862275695800783,0.6933777928352356,-0.4167424142360687,0.08324569463729858
1778807364.4271934,-2.145638122558594,-9.40374481201172,-1.924248504638672,0.688867449760437,-0.40832796692848206,0.03868291527032852
1778807364.4470317,-1.8140776062011719,-9.064999237060547,-2.0046313476562503,0.7133544087409973,-0.4154268801212311,0.05239097401499748
1778807364.4670582,-1.5269746398925783,-8.916208648681641,-2.009571075439453,0.7079218626022339,-0.3371579349040985,0.14621177315711975
1778807364.48839,-1.5884967041015625,-9.034313049316406,-1.720671844482422,0.7008002996444702,-0.30058544874191284,0.20081332325935364
1778807364.5116117,-2.0836669921875,-9.196725311279298,-1.1894265747070314,0.6790645122528076,-0.3243127763271332,0.18634580075740814
1778807364.5357456,-2.2888902282714847,-9.055269470214844,-1.1790980529785158,0.660568356513977,-0.3429717719554901,0.18283617496490479
1778807364.5561073,-2.437980194091797,-9.104067993164064,-1.2467573547363282,0.733228325843811,-0.370809942483902,0.1256895363330841
1778807364.580579,-2.455493774414063,-9.010811920166017,-1.1784992980957032,0.716847836971283,-0.3361518681049347,0.1502935141324997
1778807364.6019115,-2.599644012451172,-8.825048217773437,-0.8972341918945312,0.6878301501274109,-0.3486712872982025,0.13754691183567047
1778807364.7546344,-2.4478596496582035,-9.358987884521484,0.02604583740234375,0.574346125125885,-0.5510262250900269,0.02090994268655777
1778807364.7768016,-2.634222106933594,-9.122928771972656,0.2728825378417969,0.5392951965332031,-0.6347963213920593,-0.07621137797832489
1778807364.7976356,-2.5902136230468753,-8.623567199707031,-0.11900253295898439,0.419112890958786,-0.5917540192604065,-0.08821745216846466
1778807364.8175118,-2.4134312438964844,-8.264014892578125,-0.38889129638671877,0.3866899609565735,-0.5047508478164673,-0.04662551358342171
1778807365.92722,-2.0899539184570313,-9.85834945678711,-0.9126521301269531,-0.35395509004592896,-1.0999035835266113,0.18006227910518646
1778807365.9498334,-2.247576141357422,-10.0447119140625,-1.18553466796875,-0.07303415238857269,-0.9487200379371643,0.05702953413128853
1778807365.9707797,-1.7160314941406252,-10.115215301513672,-0.7011419677734375,0.10116293281316757,-0.8710180521011353,0.022293582558631897
1778807365.9916167,-1.2076885986328125,-10.176737365722657,0.0031434631347656253,0.08445721864700317,-0.9898094534873962,0.04077288880944252
1778807366.0131016,-1.1707154846191408,-10.096653900146485,0.1285826110839844,-0.005101209506392479,-1.009993314743042,0.13612863421440125
1778807366.034246,-1.5919395446777345,-9.601782989501954,0.04326004028320313,-0.06591834872961044,-0.9337586760520935,0.20728909969329834
1778807366.056879,-1.8396743774414064,-8.852740631103517,0.044756927490234376,0.045298606157302856,-0.8915573954582214,0.18995128571987152
1778807366.0782356,-1.7806970214843751,-8.679850158691407,0.26689498901367187,0.048646118491888046,-0.7852445840835571,0.2210642546415329
1778807366.0986867,-1.8791921997070313,-8.957373046875,0.8422984313964844,-0.05812929943203926,-0.8225957155227661,0.16244743764400482
1778807366.1202586,-2.064357147216797,-9.515262908935547,1.3982423400878907,-0.21793602406978607,-0.925115168094635,0.09139075875282288
1778807366.1443954,-2.010469207763672,-9.511371002197267,0.7532336425781251,-0.27638375759124756,-0.876670241355896,0.08846474438905716
1778807366.1666083,-1.9511924743652345,-9.263187103271484,0.4614903259277344,-0.12212764471769333,-0.8338190913200378,0.057504452764987946
1778807366.1873472,-2.113604736328125,-9.311686248779298,0.7402107238769532,-0.09747613221406937,-0.7519166469573975,0.009379561059176922
1778807366.2104647,-2.1284239196777346,-9.375603332519532,1.24780517578125,-0.17928440868854523,-0.7559878826141357,-0.008550007827579975
1778807366.231118,-1.6601976013183595,-9.697284393310547,1.0279124450683594,-0.18731604516506195,-0.7466975450515747,0.009926954284310341
1778807366.2506955,-1.5587086486816406,-9.74533447265625,0.9788145446777344,-0.12907394766807556,-0.7215096354484558,0.053345564752817154
1778807366.2724843,-1.8766474914550781,-9.499395904541016,1.0912307739257814,-0.14024761319160461,-0.6927961707115173,0.0505715012550354
1778807366.2940598,-2.0112176513671876,-9.161548461914062,1.3133688354492188,-0.16234035789966583,-0.6864249110221863,0.005383677314966917
1778807366.3144495,-1.8926641845703125,-9.168134765625,1.375938720703125,-0.09819621592760086,-0.6397289633750916,-0.030767343938350677
1778807366.3350537,-1.9437080383300782,-9.195078735351563,1.40108642578125,-0.04813063517212868,-0.6134476065635681,-0.08359213173389435
1778807366.355641,-2.053579559326172,-9.18055892944336,1.5667918395996094,-0.007837051525712013,-0.6201706528663635,-0.13730353116989136
1778807366.3767474,-1.898052978515625,-9.187294921875,1.59029296875,0.011554350145161152,-0.5432272553443909,-0.11630584299564362
1778807366.3977764,-1.9628681945800783,-9.215137023925783,1.509910125732422,-0.01668601483106613,-0.47962820529937744,-0.09539163112640381
1778807366.419338,-2.271676025390625,-9.353748779296875,1.2852273559570313,-0.025846701115369797,-0.4440130591392517,-0.12203100323677063
1778807366.4385662,-2.444865875244141,-9.631571044921875,1.2314891052246095,0.020659632980823517,-0.36026278138160706,-0.14497090876102448
1778807366.4625666,-2.4062461853027344,-9.673783264160157,1.392404479980469,0.0028021549805998802,-0.17929458618164062,-0.09282999485731125
1778807366.484186,-2.3105950927734376,-9.66480194091797,1.44898681640625,-0.0008176425471901894,-0.1302368938922882,-0.047465160489082336
1778807366.5054195,-2.125430145263672,-9.930349731445313,1.6935781860351564,0.015684565529227257,-0.07239183038473129,0.02655203640460968
1778807366.5288215,-2.6297314453125002,-11.119476928710938,1.648821258544922,-0.006752490531653166,-0.05100071057677269,0.0517888069152832
1778807366.5498521,-2.730172576904297,-11.806248779296876,0.599952392578125,-0.2046767920255661,-0.055438265204429626,0.02275886759161949
1778807366.570334,-2.389181671142578,-12.029883728027345,-1.0271640014648438,-0.2079099416732788,0.025838419795036316,0.02121090330183506
1778807366.591741,-2.236798553466797,-12.01102294921875,-0.9833052062988282,0.03304162994027138,0.18839317560195923,0.06486024707555771
1778807366.6202872,-2.112706604003906,-10.31729507446289,1.7880317687988283,0.21346262097358704,0.05885417014360428,0.0017959163524210453
1778807366.6441548,-1.7730628967285158,-9.04015090942383,1.6073574829101562,0.0857265368103981,-0.058678217232227325,0.0023120958358049393
1778807366.6653976,-1.3403128051757813,-8.227490844726564,0.5911207580566407,0.03506357967853546,-0.051289111375808716,0.08302179723978043
1778807366.6864722,-0.9756710815429688,-8.201744384765625,-0.3094065856933594,-0.05215522646903992,-0.06392848491668701,0.13709595799446106
1778807366.7096612,-0.6270460510253907,-9.200018463134766,-1.900298309326172,-0.027684016153216362,-0.01583908684551716,0.1490098237991333
1778807366.7437155,-0.4447251892089844,-10.046059112548829,-1.1636801147460938,0.36162275075912476,0.03266897797584534,0.10929825156927109
1778807366.7650802,-0.8378077697753906,-10.569370880126954,0.4736151123046875,0.27555766701698303,-0.1131756603717804,-0.007340313866734505
1778807366.7853134,-1.1163784790039064,-11.075618133544923,0.4324507141113281,0.027247020974755287,-0.25631046295166016,-0.13090775907039642
1778807366.8052733,-0.8620573425292969,-10.665321350097656,-0.5725593566894531,-0.06767752021551132,-0.2892288267612457,-0.1640133410692215
1778807366.830225,-1.0666818237304687,-9.840536499023438,-0.5402265930175781,0.06658749282360077,-0.23660095036029816,-0.18056613206863403
1778807366.851157,-1.3219010925292969,-8.75619140625,0.35595977783203125,0.07679988443851471,-0.3005734384059906,-0.22735430300235748
1778807366.871923,-1.0383906555175781,-8.151149597167969,0.9223818969726563,-0.03062458708882332,-0.35082724690437317,-0.1809096485376358
1778807366.894543,-0.585582275390625,-8.435857543945312,0.9704319763183594,-0.11330394446849823,-0.36393237113952637,-0.10506580770015717
1778807366.9160328,-0.8833131408691407,-9.189240875244142,0.8559201049804688,-0.16525951027870178,-0.37341734766960144,-0.05754838138818741
1778807366.9376755,-1.1603869628906252,-9.619446258544922,1.0321037292480468,-0.1574983447790146,-0.42939192056655884,-0.10561686754226685
1778807366.9609067,-1.16637451171875,-9.741891632080078,1.0699749755859376,-0.11666661500930786,-0.4883800745010376,-0.16074787080287933
1778807366.9809954,-1.1308982849121094,-9.827663269042969,1.0404862976074218,-0.09872323274612427,-0.5203536748886108,-0.219635009765625
1778807367.0019114,-1.0481204223632814,-9.549242248535156,1.1479627990722656,-0.07510306686162949,-0.6175589561462402,-0.2614085376262665
1778807367.0225945,-0.8388555908203126,-9.425000610351564,1.1455677795410157,-0.08019521087408066,-0.611968457698822,-0.22180522978305817
1778807367.044612,-0.7936495971679688,-9.186696166992188,0.9595046997070313,-0.07834222912788391,-0.5535672903060913,-0.12456794828176498
1778807367.0653522,-1.1133847045898437,-9.108558654785156,1.098116455078125,-0.04553806409239769,-0.5606518387794495,-0.10530239343643188
1778807367.0869493,-1.0921289062500001,-9.130113830566406,1.2519964599609377,-0.009955322369933128,-0.571552574634552,-0.09497135132551193
1778807367.1066942,-1.0109976196289063,-9.13505355834961,1.5880476379394532,-0.031120287254452705,-0.6175758838653564,-0.09229592978954315
1778807367.129215,-0.7149133300781251,-9.293873291015625,1.572330322265625,-0.10477855801582336,-0.6445583701133728,0.05865472927689552
1778807367.1483283,-0.6658154296875001,-9.5944482421875,1.4485377502441408,-0.07696176320314407,-0.6451568007469177,0.15301349759101868
1778807367.1695015,-0.7447013854980469,-9.850865020751954,1.4473402404785156,-0.03246214985847473,-0.6844305992126465,0.1405683308839798
1778807367.1915762,-0.8854087829589844,-9.631421356201173,1.5658937072753907,-0.054128434509038925,-0.7417279481887817,0.11703601479530334
1778807367.212366,-0.8378077697753906,-9.426946563720703,1.4367123413085938,-0.09699467569589615,-0.7795546054840088,0.1304195523262024
1778807367.2403376,-0.4981640625,-9.72033645629883,1.226100311279297,-0.10651335120201111,-0.8482523560523987,0.1515553891658783
1778807367.2613647,-0.3632945251464844,-10.128537597656251,1.1666738891601562,-0.02381117455661297,-0.8185771107673645,0.2687285542488098
1778807367.2815163,-1.1238629150390627,-10.240804138183595,1.9368223571777345,-0.0031607206910848618,-0.8861064314842224,0.2757381200790405
1778807367.303316,-1.8203645324707032,-11.150612182617188,2.639012145996094,-0.002717589493840933,-1.014129877090454,0.17688605189323425
1778807367.326765,-1.8688636779785157,-12.15801727294922,1.3850697326660157,-0.27323591709136963,-0.9988164305686951,0.11075621843338013
1778807367.3470066,-1.5820600891113281,-13.347144470214845,-0.27916946411132815,-1.0821675062179565,-1.071902871131897,-0.0958762913942337
1778807367.368069,0.17857864379882812,-14.060261535644532,-1.5708334350585937,-0.8090459704399109,-0.9238447546958923,-0.004321795888245106
1778807367.3898861,0.07319778442382813,-12.31279541015625,-2.314936065673828,-0.15289901196956635,-0.8142604827880859,0.07238256931304932
1778807367.4110734,-1.1174263000488283,-9.637259216308594,-2.066452789306641,0.4458727240562439,-0.7937948703765869,0.07415487617254257
1778807367.4320066,-2.268981628417969,-6.857090606689454,-0.7283853149414062,0.7532128691673279,-0.8022089600563049,0.027663230895996094
1778807367.4543943,-0.978215789794922,-6.252048797607422,2.209555206298828,0.36663252115249634,-0.9186197519302368,0.062427621334791183
1778807367.4780939,-0.5204676818847657,-7.257657623291016,0.8190966796875,-0.01561109721660614,-0.9633906483650208,0.16729214787483215
1778807367.4986856,-0.8399034118652344,-8.932824096679688,-0.8493338012695313,0.15173640847206116,-0.7608610987663269,0.14535760879516602
1778807367.5197837,-1.1213182067871095,-10.465187530517579,-0.4140390014648438,0.03829822689294815,-0.6055936217308044,0.16146229207515717
1778807367.544276,-1.256038055419922,-11.63635208129883,-0.23980133056640626,-0.3275262713432312,-0.6844847202301025,0.19705939292907715
1778807367.5660856,-1.3433065795898438,-11.624826049804689,-1.0877879333496094,-0.3436412215232849,-0.7439590096473694,0.20822958648204803
1778807367.5892358,-2.1143531799316406,-10.306966552734375,-1.5567626953125,0.234193354845047,-0.7292492389678955,0.09077877551317215
1778807367.6127443,-2.59859619140625,-8.098159790039062,0.13606704711914064,0.4138885736465454,-0.6419850587844849,0.033660344779491425
1778807367.6339483,-1.6512162780761719,-7.584278411865235,2.331551513671875,-0.007874901406466961,-0.677533745765686,0.13115660846233368
1778807367.6543758,-1.1886781311035157,-8.00699935913086,0.8430468750000001,-0.22812142968177795,-0.7233121991157532,0.21177105605602264
1778807367.676204,-1.3989907836914064,-8.995244293212892,-0.10148895263671875,-0.11477601528167725,-0.626335620880127,0.20906515419483185
1778807367.698108,-1.6539106750488282,-9.791887664794922,0.1778302001953125,-0.055285435169935226,-0.6043452024459839,0.13296526670455933
1778807367.7173214,-1.8482066345214845,-10.089768218994141,0.718505859375,-0.10381964594125748,-0.5800373554229736,0.05617671087384224
1778807367.737616,-2.2995181274414063,-10.071655883789063,0.8297245788574219,-0.15590134263038635,-0.5939426422119141,-0.05101552605628967
1778807367.7882829,-1.3677058410644531,-9.200617218017578,0.6671626281738282,-0.0802348256111145,-0.4668288230895996,0.030566342175006866
1778807367.810934,-1.9188597106933594,-9.061556396484375,0.8665480041503907,-0.05009331926703453,-0.4620809853076935,0.014004508033394814
1778807367.8318982,-1.7896783447265625,-9.077722778320313,1.0734178161621095,0.025705737993121147,-0.4238813817501068,-0.0037713153287768364
1778807367.8564653,-2.0082238769531253,-9.057365112304687,1.347198486328125,-0.0019134553149342537,-0.3948865234851837,-0.0615333616733551
1778807367.878046,-2.2014720153808596,-8.999136199951172,1.3816268920898438,0.013955378904938698,-0.38891494274139404,-0.1144566610455513
1778807367.8999708,-1.821412353515625,-9.112300872802734,1.4365626525878907,0.0729205533862114,-0.31287336349487305,-0.09194247424602509
1778807367.9229517,-1.806742858886719,-9.318721618652344,1.7844392395019533,0.060216084122657776,-0.30849742889404297,-0.09035248309373856
1778807367.9433522,-1.9357745361328127,-9.785900115966797,1.7537530517578126,-0.010352624580264091,-0.2998324930667877,-0.12633515894412994
1778807367.96304,-1.9303857421875001,-9.983489227294923,1.45856689453125,-0.017719294875860214,-0.23955319821834564,-0.13142439723014832
1778807367.9846559,-1.7226177978515627,-9.952952728271486,1.3485456848144532,-0.01378453616052866,-0.19474399089813232,-0.09701249748468399
1778807368.004739,-1.518292694091797,-9.941426696777345,1.8299446105957031,-0.06121541187167168,-0.2179093062877655,-0.03554072231054306
1778807368.0292974,-1.4346166992187501,-10.342742156982423,2.3608905029296876,-0.13223309814929962,-0.20519757270812988,0.05595260113477707
1778807368.0514042,-1.828597412109375,-11.23309066772461,2.554288330078125,-0.16554053127765656,-0.22402748465538025,0.10313960909843445
1778807368.072508,-2.694097595214844,-12.078981628417969,1.2826826477050781,-0.3342832028865814,-0.23569905757904053,0.07354416698217392
1778807368.0933948,-2.8192373657226564,-12.432845764160158,-0.7023394775390626,-0.2977629601955414,-0.2406812459230423,-0.12002169340848923
1778807368.1159108,-2.114652557373047,-12.202923889160157,-1.6590000915527345,0.04343540221452713,-0.10171167552471161,-0.12774986028671265
1778807369.2041993,-2.7800189208984376,-9.09104507446289,0.10792556762695313,-0.3262210786342621,-1.6488200426101685,0.16042494773864746
1778807369.2291508,-2.835703125,-9.314081268310547,0.2540217590332031,-0.3309861719608307,-1.6442562341690063,0.12298145145177841
1778807369.2491088,-2.7737319946289065,-9.534123687744142,-0.14654525756835937,-0.33851781487464905,-1.6277638673782349,0.10793723911046982
1778807369.2683644,-2.795885925292969,-9.596094818115235,-0.3393443298339844,-0.31989341974258423,-1.5589377880096436,0.1048649325966835
1778807369.2888186,-2.7202931213378907,-9.609417114257813,-0.2760260009765625,-0.26927420496940613,-1.4987475872039795,0.09920334815979004
1778807369.3117282,-2.446063385009766,-9.491163024902344,0.23306533813476563,-0.23185810446739197,-1.4909735918045044,0.07122717797756195
1778807369.3332627,-2.2863455200195313,-9.411378936767578,0.37092864990234375,-0.24219995737075806,-1.4547144174575806,0.06141173094511032
1778807369.3537407,-2.5032444763183594,-9.258846130371094,0.35940261840820314,-0.2644355893135071,-1.3893600702285767,0.040796197950839996
1778807369.3747706,-2.6626629638671875,-9.101972351074219,0.42421783447265626,-0.24902956187725067,-1.2707304954528809,-0.036250244826078415
1778807370.4092298,-1.4063255310058596,-9.799072723388672,1.7857864379882813,-0.13886037468910217,-1.1565910577774048,0.20429715514183044
1778807370.4349623,-1.8302439880371095,-9.82392105102539,1.866618347167969,-0.11752236634492874,-1.2418071031570435,0.2887089252471924
1778807370.4547293,-2.3655308532714847,-10.724747772216798,1.6099021911621094,-0.14438988268375397,-1.3100128173828125,0.239194855093956
1778807370.474797,-2.0866607666015624,-11.327693939208984,-0.417930908203125,-0.4657719135284424,-1.2308653593063354,0.2803269326686859
1778807370.4959793,-1.6184344482421875,-11.98123489379883,-1.701661376953125,-0.5467496514320374,-1.1559538841247559,0.20770585536956787
1778807370.5179472,-1.1636801147460938,-11.635753326416015,-1.5730787658691407,-0.18860964477062225,-0.9204829335212708,0.19589202105998993
1778807370.5400946,-1.3904585266113283,-10.539732513427735,0.5821394348144532,-0.3041369616985321,-0.9787142872810364,0.20464879274368286
1778807370.5616486,-2.150428161621094,-9.534123687744142,1.2499008178710938,-0.4273706376552582,-1.0890663862228394,0.1657596230506897
1778807370.5829563,-1.8633251953125,-8.614436187744142,-0.12364288330078126,-0.327811598777771,-1.0750207901000977,0.18446889519691467
1778807370.6051142,-1.337618408203125,-8.606502685546875,-0.5093907165527344,-0.1614876091480255,-0.9852450489997864,0.2678198218345642
1778807370.6265206,-1.4082714843750002,-8.908873901367189,-0.47556106567382816,-0.05214472860097885,-0.9542454481124878,0.23445892333984375
1778807370.6471183,-1.3226495361328126,-9.372010803222656,-0.5703140258789062,-0.10337036103010178,-0.9165274500846863,0.1856909543275833
1778807370.6666946,-1.6768130493164064,-9.52349578857422,-0.7481442260742188,-0.16709892451763153,-0.8939078450202942,0.1018548458814621
1778807370.6872723,-2.1712348937988284,-9.457632751464844,-1.0803034973144532,-0.1415085643529892,-0.8483591079711914,0.021794334053993225
1778807370.705541,-2.621648254394531,-9.40658889770508,-0.8647517395019532,-0.0591418594121933,-0.8266515135765076,-0.03012732043862343
1778807370.7289784,-2.677781524658203,-9.641600189208985,0.2800675964355469,-0.06820160895586014,-0.82039874792099,0.005994426552206278
1778807370.750744,-2.8494744873046876,-10.04186782836914,1.3433065795898438,-0.17190299928188324,-0.8452556133270264,0.09288931638002396
1778807370.77216,-2.921923828125,-9.958191833496095,0.4890330505371094,-0.19367191195487976,-0.8515182137489319,0.17645803093910217
1778807370.7934108,-3.061433715820313,-9.648186492919923,0.0161663818359375,-0.21003787219524384,-0.8685569167137146,0.18685069680213928
1778807370.814426,-2.7271788024902346,-9.392069091796875,0.07574249267578126,-0.13552987575531006,-0.8429597616195679,0.13266508281230927
1778807370.833505,-2.3929238891601563,-9.167386322021486,0.2197430419921875,-0.113377645611763,-0.8014471530914307,0.11038095504045486
1778807370.8549545,-2.146685943603516,-8.650211791992188,0.5435197448730469,-0.11073806136846542,-0.7633067965507507,0.06497592478990555
1778807370.8775063,-1.827250213623047,-8.494535522460938,0.7047344970703125,-0.12459694594144821,-0.6406224966049194,0.14286287128925323
1778807370.9009166,-2.442321166992188,-8.970096588134766,0.6629713439941407,-0.1432580053806305,-0.5741081237792969,0.14600017666816711
1778807370.9235017,-2.424957275390625,-9.48622329711914,0.4017645263671875,-0.10910414904356003,-0.5353177785873413,0.11866184324026108
1778807370.944698,-2.5809329223632815,-9.72467742919922,0.39278320312500004,-0.12431426346302032,-0.4457223415374756,0.07291139662265778
1778807370.9668224,-2.844834136962891,-9.621990966796876,0.6912625122070313,-0.1436695009469986,-0.459438681602478,0.01013805903494358
1778807370.989662,-2.4001089477539064,-9.062005462646486,0.8882528686523438,-0.13007527589797974,-0.44872066378593445,0.01507503166794777
1778807371.0102367,-2.6161097717285156,-8.867110748291015,1.047671356201172,-0.14662481844425201,-0.4135817289352417,0.050780028104782104
1778807371.0346246,-2.914289703369141,-8.950337677001954,1.1822415161132813,-0.17436157166957855,-0.43431586027145386,0.011623000726103783
1778807371.0570822,-2.6198519897460937,-9.145082702636719,0.9053173828125001,-0.14207910001277924,-0.35471823811531067,0.027820058166980743
1778807371.0780292,-2.6029371643066406,-9.378896484375,1.17595458984375,-0.13442575931549072,-0.34074637293815613,-0.025184277445077896
1778807371.100701,-2.3082000732421877,-9.374854888916015,1.2892689514160156,-0.11541140079498291,-0.3131996989250183,-0.07688532024621964
1778807371.1218512,-2.122286682128906,-9.220974884033204,1.3296849060058595,-0.09195917099714279,-0.2573351263999939,-0.07720723003149033
1778807371.1431851,-2.2695803833007813,-9.213490447998048,1.2964540100097657,-0.045962855219841,-0.16889835894107819,-0.1003175601363182
1778807371.1658962,-2.625091094970703,-9.396260375976563,1.2304412841796875,-0.011448247358202934,-0.11715885996818542,-0.16201797127723694
1778807371.1862571,-2.707719268798828,-9.399703216552735,1.387764129638672,0.029354823753237724,-0.10045494884252548,-0.22558903694152832
1778807371.209921,-2.385289764404297,-9.543554077148437,1.2855267333984375,0.01750459522008896,-0.028628014028072357,-0.2160285860300064
1778807371.233219,-2.3406825256347656,-9.679621124267578,1.2118798828125001,-0.012970511801540852,0.041022833436727524,-0.18152013421058655
1778807371.2545054,-2.138453063964844,-9.92780502319336,1.281185760498047,0.022093631327152252,0.08612427115440369,-0.13607941567897797
1778807371.276744,-2.2546115112304688,-10.14769775390625,1.5962805175781252,0.0811314657330513,0.12091418355703354,-0.12827233970165253
1778807371.3424494,-2.940634918212891,-11.305240631103516,2.099384307861328,-0.2521882653236389,0.09233183413743973,-0.1313038468360901
1778807371.3650198,-2.345921630859375,-12.184661865234375,-2.2270687866210936,0.24510450661182404,0.27361029386520386,-0.20457835495471954
1778807371.3859115,-2.3501129150390625,-10.499615936279298,0.3243754577636719,0.3745515048503876,0.23286287486553192,-0.19437581300735474
1778807371.4075203,-2.179018707275391,-9.13699951171875,1.22385498046875,0.165096715092659,0.11257518082857132,-0.1328956037759781
1778807371.4284682,-2.099384307861328,-7.987689514160157,0.3104544067382813,0.012225554324686527,0.05684249848127365,-0.07868209481239319
1778807371.450598,-1.6350498962402344,-7.235204315185547,-0.4989125061035157,0.04066600650548935,0.04453280195593834,-0.04630223661661148
1778807371.4727137,-1.1409274291992189,-7.1718859863281255,-0.6625222778320313,0.11030110716819763,0.021763471886515617,0.06970924139022827
1778807371.4943974,-1.0600955200195312,-7.9818516540527344,-0.26150619506835937,0.09234663099050522,-0.0281931571662426,0.09517917782068253
1778807371.5149076,-1.4593153381347657,-9.967173156738282,0.22004241943359376,-0.004624204244464636,-0.08849012851715088,0.045403771102428436
1778807371.5371797,-1.7283059692382814,-11.142828369140625,-0.07050338745117188,-0.1667356789112091,-0.1736719310283661,-0.10418479144573212
1778807371.558888,-1.2252021789550782,-11.864627380371095,-0.8818162536621095,-0.29896214604377747,-0.273738294839859,-0.24940891563892365
1778807371.6255488,-1.620230712890625,-8.340056762695314,1.1729608154296876,0.04256043583154678,-0.20864547789096832,-0.2355654537677765
1778807371.647536,-1.3049862670898438,-7.833510131835938,1.33402587890625,-0.1374794840812683,-0.3435831367969513,-0.19752630591392517
1778807371.6680157,-1.1320957946777344,-8.246351623535157,0.5403762817382812,-0.2089679092168808,-0.40494292974472046,-0.09265253692865372
1778807371.6871045,-1.1846365356445314,-9.087302856445312,0.16615447998046876,-0.16134865581989288,-0.4397326111793518,0.0024078907445073128
1778807371.7109678,-1.2516970825195313,-9.80086898803711,0.19579284667968752,-0.08141721040010452,-0.4673302173614502,0.07629535347223282
1778807371.732448,-1.5358062744140626,-10.034084014892578,0.487386474609375,-0.1119106113910675,-0.5185875296592712,0.06147020310163498
1778807371.7539272,-1.53041748046875,-9.867779846191407,0.9151968383789063,-0.13170352578163147,-0.6358717083930969,0.015367180109024048
1778807371.77563,-0.975820770263672,-9.626331939697266,0.8170010375976563,-0.16012631356716156,-0.6729923486709595,0.044506024569272995
1778807371.7951329,-1.2829820251464845,-9.509275360107422,0.6884184265136719,-0.17732980847358704,-0.7075884342193604,0.03757514804601669
1778807371.8157232,-1.3651611328125002,-9.634864196777345,0.49337402343750003,-0.12938009202480316,-0.7347295880317688,0.010328320786356926
1778807371.836671,-1.2096345520019531,-9.543105010986329,0.5695655822753907,-0.0780903548002243,-0.7257771492004395,0.03366592526435852
1778807371.8577693,-1.1606863403320313,-9.453441467285156,0.8381071472167969,-0.06443212181329727,-0.7451421618461609,0.07530918717384338
1778807371.8803456,-1.3073812866210939,-9.27156967163086,1.1053015136718751,-0.1160719245672226,-0.8025283813476562,0.1419425755739212
1778807371.9036338,-1.5560142517089846,-9.267079010009766,1.1897259521484376,-0.1324976086616516,-0.8431170582771301,0.1575280874967575
1778807371.922955,-1.5702346801757814,-9.517508239746094,1.0349478149414062,-0.13066944479942322,-0.8872694373130798,0.15597650408744812
1778807371.945273,-1.2543914794921875,-9.726773071289063,0.7319778442382813,-0.0832711011171341,-0.8933032751083374,0.16922549903392792
1778807371.9661136,-1.1150312805175782,-9.801617431640626,0.6201603698730469,-0.033286333084106445,-0.8648294806480408,0.21012330055236816
1778807371.9866898,-1.0780581665039064,-9.771380310058595,0.6062393188476562,0.0066510457545518875,-0.8867558240890503,0.20753686130046844
1778807372.007263,-0.8045768737792969,-9.923464050292969,0.8231382751464844,-0.021168766543269157,-0.90245121717453,0.26355284452438354
1778807372.0279288,-0.9319619750976563,-10.094857635498048,1.2310400390625,-0.08392998576164246,-0.9543633460998535,0.26530909538269043
1778807372.0529907,-1.3389656066894533,-10.596464538574219,1.4923965454101564,-0.046468570828437805,-1.0339893102645874,0.21907460689544678
1778807372.0739543,-1.8658699035644533,-11.58515853881836,1.2325369262695314,-0.1379166841506958,-1.0151963233947754,0.16926787793636322
1778807372.094011,-1.7670753479003907,-12.318333892822267,-0.045056304931640624,-0.5651416182518005,-0.9655525088310242,0.10282326489686966
1778807372.1138825,-1.0747650146484375,-12.755125579833985,-1.4653028869628908,-0.5463607907295227,-0.9324042797088623,0.017461467534303665
1778807372.1353083,-1.3739927673339845,-11.62871795654297,-1.5816110229492188,-0.23288065195083618,-0.714747965335846,0.047966595739126205
1778807372.1573024,-1.803150329589844,-9.857900390625,-0.06930587768554688,-0.06891284883022308,-0.7434130907058716,0.05120782181620598
1778807372.1774259,-1.6777111816406252,-8.400081939697266,0.9617500305175781,-0.17644542455673218,-0.8726829290390015,0.12162143737077713
1778807372.1978054,-1.6280145263671877,-7.704927520751953,0.4604425048828125,-0.2033442109823227,-0.9473724365234375,0.15984494984149933
1778807372.2186253,-1.9547850036621095,-7.685767364501953,-0.8731343078613282,-0.0893324464559555,-0.933439314365387,0.10250619798898697
1778807372.2390037,-2.228266296386719,-8.117319946289063,-1.8121316528320313,0.05465298146009445,-0.8188214898109436,0.027107391506433487
1778807372.2646554,-2.022743682861328,-9.25719955444336,-1.6371455383300781,0.20594081282615662,-0.6880369782447815,-0.020938724279403687
1778807372.2832575,-2.078577575683594,-9.884395294189453,-0.07379653930664062,0.23691801726818085,-0.6195957064628601,-0.01238091941922903
1778807372.3026857,-2.580483856201172,-10.37178176879883,0.9437873840332032,-0.010024459101259708,-0.6728391647338867,0.04631281644105911
1778807372.324427,-2.8903395080566407,-10.740016021728517,0.5167254638671875,-0.28337541222572327,-0.8014407753944397,0.12159156799316406
1778807372.3436344,-2.9987141418457033,-10.469678192138673,-0.3695814514160156,-0.32142210006713867,-0.8820694088935852,0.2286801040172577
1778807372.3661966,-3.5604959106445313,-9.565857696533204,-0.7131170654296876,-0.0460834801197052,-0.9910361170768738,0.22439107298851013
1778807372.388216,-3.652105407714844,-8.72026611328125,-0.2704875183105469,0.028013713657855988,-1.0623618364334106,0.17023709416389465
1778807372.4104028,-2.6767337036132814,-8.48794921875,0.5001100158691406,-0.033579833805561066,-1.1191171407699585,0.136616051197052
1778807372.4312747,-2.0083735656738284,-8.685388641357422,0.3126997375488281,-0.14095887541770935,-1.117398977279663,0.15388354659080505
1778807373.6090276,-1.4962884521484376,-10.774594116210938,-2.4396267700195313,0.012984695844352245,-0.9290256500244141,0.05956951156258583
1778807373.631753,-1.9899618530273437,-9.890083465576172,-0.4141886901855469,-0.043173812329769135,-0.9381164312362671,0.054270461201667786
1778807373.6529584,-2.1201910400390624,-8.977880401611328,1.5199392700195313,-0.28787630796432495,-1.0944870710372925,0.09864428639411926
1778807373.6740985,-1.994901580810547,-8.99853744506836,0.2770738220214844,-0.30254459381103516,-1.123773217201233,0.22450758516788483
1778807373.6977313,-2.1240829467773437,-9.42095901489258,-0.4692741394042969,-0.20772218704223633,-1.1545218229293823,0.30942654609680176
1778807373.718395,-2.3116429138183596,-10.041718139648438,-0.8762777709960938,-0.13866248726844788,-1.1493629217147827,0.24905768036842346
1778807373.739192,-2.334994354248047,-10.244246978759767,-0.8557704162597657,-0.07946491241455078,-1.1309828758239746,0.1558072566986084
1778807373.7608392,-2.2351519775390627,-9.931996307373048,-0.20462448120117188,-0.10962101817131042,-1.1536169052124023,0.07894837856292725
1778807373.7816932,-2.064357147216797,-9.177116088867187,0.6349795532226563,-0.1806851476430893,-1.210244059562683,0.061678096652030945
1778807373.8033009,-2.245330810546875,-9.029223632812501,0.6563850402832031,-0.187062606215477,-1.2317672967910767,0.08043809980154037
1778807373.826055,-2.6065296936035156,-9.274862823486329,0.8390052795410157,-0.14439600706100464,-1.197029948234558,0.11890439689159393
1778807373.8469234,-2.9485684204101563,-9.670340423583985,0.8122109985351563,-0.09454214572906494,-1.1186784505844116,0.14236372709274292
1778807373.867184,-2.9401858520507815,-10.061027984619141,0.609532470703125,-0.15200456976890564,-1.1609468460083008,0.0975131094455719
1778807373.8903031,-2.72792724609375,-10.113269348144533,0.3305126953125,-0.18019579350948334,-1.1740158796310425,0.05524149909615517
1778807373.9120762,-2.768642578125,-9.231453094482422,0.10493179321289063,-0.12573526799678802,-1.114944338798523,0.03802349790930748
1778807373.9339547,-2.8256739807128906,-8.520431671142578,0.47032196044921876,-0.07404831051826477,-1.0532634258270264,0.03369501233100891
1778807374.1942763,-2.5954527282714843,-8.27045150756836,0.7473957824707032,-0.08813986927270889,-0.9269459247589111,0.1134568601846695
1778807374.2168107,-2.8084597778320313,-8.965605926513673,1.5609539794921876,-0.073695607483387,-0.35376983880996704,-0.12579306960105896
1778807374.2375534,-2.968177642822266,-9.081614685058595,1.6624429321289063,-0.08417633175849915,-0.29565900564193726,-0.10855124145746231
1778807374.2597716,-2.844834136962891,-9.360784149169922,1.450184326171875,-0.05158834159374237,-0.2358991950750351,-0.06880771368741989
1778807374.279998,-2.950813751220703,-9.647737426757812,1.5979270935058594,-0.00971826072782278,-0.18559105694293976,-0.027690265327692032
1778807374.2997272,-3.1100825500488285,-9.78560073852539,1.9645147705078125,0.013328101485967636,-0.15067322552204132,-0.008105754852294922
1778807374.3644204,-2.9783564758300782,-11.445349273681641,2.6574238586425785,-0.43409451842308044,-0.18958866596221924,0.19337594509124756
1778807374.3865876,-2.839145965576172,-11.882889404296876,0.5629792785644532,-0.5756244659423828,-0.1320560872554779,0.32024887204170227
1778807374.4094892,-3.0425729370117187,-11.890972595214844,-2.0303778076171874,-0.3661060035228729,0.07385576516389847,0.39245307445526123
1778807374.428158,-3.509901123046875,-11.18953125,-2.0151095581054688,0.12971778213977814,0.09466283023357391,0.21826277673244476
1778807374.4475951,-2.8157945251464844,-9.945917358398438,-0.3209326171875,0.45368021726608276,0.11322517693042755,0.07600662112236023
1778807374.4679425,-1.8874250793457032,-8.456664276123048,1.6516653442382814,0.23107947409152985,0.06301917135715485,0.13874049484729767
1778807374.4893858,-1.6353492736816406,-7.673492889404297,0.6795867919921875,0.004927830770611763,-0.005401743575930595,0.11754155158996582
1778807374.5119245,-1.1061996459960939,-7.508236541748047,-0.7538323974609376,-0.008897681720554829,0.042820610105991364,0.11268135905265808
1778807374.5330613,-0.47376480102539065,-7.989635467529297,-1.0708731079101563,0.13364554941654205,0.030457131564617157,0.11567027121782303
1778807374.5564919,-0.1866618347167969,-9.216035156250001,-0.6051914978027344,0.14397025108337402,-0.025413893163204193,0.08637343347072601
1778807374.6071913,-1.0440788269042969,-11.353889465332031,-0.3046165466308594,0.004388915374875069,-0.06731487810611725,-0.0458088181912899
1778807374.6620555,-1.04662353515625,-9.318721618652344,0.14998809814453126,0.10237598419189453,-0.06308846920728683,-0.3591877520084381
1778807374.7108786,-0.8090675354003907,-8.29200668334961,0.5897735595703125,-0.07881344109773636,-0.12352076172828674,-0.10478505492210388
1778807374.7343128,-1.3181588745117188,-9.097781066894532,0.38350250244140627,-0.05615256354212761,-0.15044650435447693,-0.07575662434101105
1778807374.7601082,-1.1295510864257814,-9.280251617431642,0.7125183105468751,-0.03458307310938835,-0.14526066184043884,-0.04878654330968857
1778807374.8058176,-1.024918670654297,-9.197773132324219,1.0223739624023438,-0.04363473504781723,-0.11273066699504852,0.030288811773061752
1778807374.8334036,-1.0826985168457033,-9.717642059326172,0.8762777709960938,-0.09303171187639236,-0.14634855091571808,-0.031814757734537125
1778807374.8546813,-1.063089294433594,-9.72662338256836,0.5325924682617188,-0.06195947155356407,-0.09677360951900482,-0.030106492340564728
1778807374.8758564,-1.1305989074707032,-9.629026336669922,0.7840695190429688,0.005981496535241604,-0.03073706664144993,-0.01802239753305912
1778807374.90823,-1.1166778564453126,-9.488468627929688,1.22625,0.00861397571861744,-0.009742053225636482,-0.0044839046895504
1778807374.9339972,-0.9180409240722657,-9.30465087890625,1.1645782470703125,-0.011481408029794693,-0.011299947276711464,0.0752110630273819
1778807374.9568594,-1.2401710510253907,-9.147627410888672,1.0591973876953125,0.022936178371310234,0.0011475221253931522,0.11945632100105286
1778807374.978315,-1.3015434265136718,-9.183702392578125,1.0713221740722656,0.07530279457569122,0.025691241025924683,0.13323572278022766
1778807375.0001693,-0.9949809265136719,-9.16139877319336,1.3139675903320314,0.0702628344297409,0.05209743604063988,0.16975003480911255
1778807375.0263183,-0.5486091613769531,-9.505084075927735,1.4847624206542969,0.04482408985495567,0.09442581981420517,0.23433654010295868
1778807375.047114,-0.7360194396972657,-9.96417938232422,1.4485377502441408,0.03098127245903015,0.12145744264125824,0.26206669211387634
1778807375.06877,-1.2995974731445312,-10.336604919433594,1.4024336242675781,0.024504709988832474,0.0897701308131218,0.16956384479999542
1778807375.0917647,-1.5305671691894531,-10.500065002441406,1.3892610168457031,0.034516576677560806,0.10078340023756027,0.12492439895868301
1778807375.1135683,-1.2413685607910157,-10.480156402587891,1.9324813842773438,0.012982005253434181,0.10106667876243591,0.15023045241832733
1778807375.1351352,-1.563798065185547,-10.600955200195314,2.3116429138183596,0.006527182646095753,0.07592098414897919,0.20289871096611023
1778807375.1568496,-2.2412892150878907,-11.635603637695313,2.399210815429688,-0.03188692778348923,0.05338335782289505,0.13772068917751312
1778807375.422667,-2.096240844726563,-12.419972534179688,0.9132508850097657,-0.48252037167549133,-0.043204113841056824,-0.042651865631341934
1778807375.4541652,-0.35745666503906254,-7.306605834960938,0.108973388671875,0.1499461531639099,0.8992032408714294,-0.16447356343269348
1778807375.4764638,-0.2424957275390625,-8.548722839355468,-0.6836283874511719,0.20428872108459473,1.1549193859100342,0.15198439359664917
1778807375.4977162,-1.6175363159179688,-9.855355682373048,-0.494571533203125,0.18714316189289093,1.1515718698501587,0.04964301735162735
1778807375.5184598,-2.7238856506347657,-10.692115631103515,-0.10972183227539063,0.20715321600437164,1.1260184049606323,-0.16984282433986664
1778807375.5417871,-2.791395263671875,-10.267149353027344,0.9150471496582032,0.17554783821105957,1.0728703737258911,-0.32929733395576477
1778807375.5618243,-1.8609301757812502,-9.344617767333984,1.0569520568847657,0.14179225265979767,1.0316874980926514,-0.335157185792923
1778807375.5824323,-1.2772938537597658,-8.688831481933594,0.9383985900878907,0.14852659404277802,1.03169584274292,-0.18327265977859497
1778807375.6030614,-1.5364050292968752,-8.617879028320313,0.8099656677246094,0.1886894553899765,1.017458200454712,-0.06934227794408798
1778807375.624703,-1.9832258605957032,-9.05167694091797,0.8637039184570313,0.22821274399757385,0.9876571297645569,-0.06549710035324097
1778807375.645772,-2.0809725952148437,-9.323062591552734,1.035845947265625,0.24293573200702667,0.9382950067520142,-0.17382799088954926
1778807375.6665902,-1.8139279174804688,-9.346414031982423,1.0768606567382812,0.2641935348510742,0.9358087182044983,-0.2122785598039627
1778807375.6887262,-1.4605128479003906,-9.21843017578125,1.2253518676757813,0.27824121713638306,0.9360211491584778,-0.20813710987567902
1778807375.7107375,-1.5587086486816406,-9.288933563232423,1.167422332763672,0.2462584525346756,0.9228079915046692,-0.21672683954238892
1778807375.7348716,-1.5874488830566407,-9.551188201904298,0.7936495971679688,0.23524747788906097,0.9537809491157532,-0.21207596361637115
1778807375.7548862,-1.6853453063964845,-9.73186248779297,0.628692626953125,0.25499826669692993,1.034623622894287,-0.21042346954345703
1778807375.775154,-1.8133291625976564,-9.850116577148437,0.9093589782714844,0.21024076640605927,1.0323188304901123,-0.21948370337486267
1778807375.796338,-1.713486785888672,-9.88708969116211,1.1517050170898437,0.154649019241333,1.0569535493850708,-0.18165616691112518
1778807375.816061,-1.7461189270019533,-9.827812957763673,1.2735516357421877,0.12002792209386826,1.056593894958496,-0.14836284518241882
1778807375.8364625,-1.8598823547363281,-9.839488677978515,1.0889854431152344,0.1731375902891159,1.0956287384033203,-0.11900067329406738
1778807375.8593473,-1.72201904296875,-10.823242950439454,1.2205618286132813,0.34508416056632996,1.1854979991912842,-0.06836660206317902
1778807375.8815641,-2.066602478027344,-11.542796630859376,1.549427947998047,0.0522671714425087,1.1200016736984253,-0.1135588213801384
1778807375.905814,-1.6636404418945314,-12.055929565429688,-0.1580712890625,-0.37050148844718933,0.9875792860984802,-0.279555082321167
1778807375.9285455,-0.7048841857910156,-11.983929290771485,-2.1845571899414065,-0.06345666944980621,1.2128690481185913,-0.22149290144443512
1778807375.954049,-0.8259823608398438,-10.708431701660157,-1.6819024658203126,0.30912914872169495,1.3496463298797607,-0.18580396473407745
1778807375.9772656,-0.85981201171875,-8.968300323486329,0.5405259704589844,0.10572224110364914,1.3313876390457153,-0.1311134696006775
1778807375.9975412,-0.9145980834960938,-8.106392669677735,-0.12184661865234375,-0.07385624200105667,1.3017683029174805,-0.08353765308856964
1778807376.0179727,-0.9620494079589844,-7.6687028503417976,-1.150806884765625,0.015188859775662422,1.3629456758499146,-0.07071926444768906
1778807376.046228,-0.8878038024902344,-7.742050323486328,-0.9518705749511719,0.17667481303215027,1.398157000541687,-0.1050809696316719
1778807376.0672028,-0.67779052734375,-9.235345001220704,0.23546035766601564,0.16174432635307312,1.2894880771636963,-0.1592952013015747
1778807376.0888515,-0.6815327453613281,-10.286758575439453,0.24324417114257812,0.008665664121508598,1.187025547027588,-0.19285811483860016
1778807376.1105278,-0.4052073669433594,-11.377989349365235,-0.09505233764648438,-0.034263260662555695,1.0407754182815552,-0.250496506690979
1778807376.1304023,-0.12079879760742188,-12.002041625976563,-0.4996609497070313,0.13776938617229462,0.992423415184021,-0.24960921704769135
1778807376.1531534,-0.28380981445312503,-11.396550750732423,-0.46957351684570314,0.1771823763847351,0.9614652395248413,-0.28255248069763184
1778807376.1756213,-0.46343627929687503,-9.6519287109375,0.11660751342773439,0.15246467292308807,0.9208418130874634,-0.3023666739463806
1778807376.7470462,-0.5878276062011719,-8.662635955810547,0.6179150390625,0.11101586371660233,0.8728049397468567,-0.2875378429889679
1778807376.771649,-1.1678713989257814,-8.605604553222657,-1.5676899719238282,0.03268441930413246,0.2001129686832428,0.14135654270648956
1778807376.7918851,-1.8227595520019533,-8.699758758544922,-2.039059753417969,0.10518476366996765,0.3709287643432617,0.009075967594981194
1778807376.812661,-1.7214202880859375,-9.31378189086914,-1.748214569091797,0.2618388533592224,0.5703858733177185,-0.1050833910703659
1778807376.8335135,-1.568588104248047,-9.996661834716797,-0.5261558532714844,0.3698437213897705,0.7445309162139893,-0.12642835080623627
1778807376.8539782,-1.5950830078125,-10.769654388427735,0.46104125976562504,0.2821599543094635,0.7636989951133728,-0.084566131234169
1778807376.8760066,-1.8076409912109377,-11.065738677978516,0.2613565063476563,0.1064508780837059,0.7321637272834778,0.016586564481258392
1778807376.8970506,-2.2273681640625003,-10.35561538696289,-0.6423143005371094,0.09333769232034683,0.6995288133621216,0.05087827518582344
1778807376.9178247,-2.1878503417968753,-9.408385162353516,-1.398541717529297,0.3445303440093994,0.8011366128921509,0.04420521855354309
1778807376.9390216,-1.6226257324218751,-8.645272064208985,-0.8767268371582032,0.4637933373451233,0.916506826877594,0.08604656904935837
1778807377.207319,-0.9354048156738282,-8.337961120605469,0.6081852722167969,0.31391409039497375,0.9428184032440186,0.1515175700187683
1778807377.2310526,-1.6582516479492189,-9.731712799072266,0.7225474548339844,0.10902658104896545,1.3917261362075806,-0.14328041672706604
1778807378.3185432,0.4412823486328125,-11.731554107666016,-0.30371841430664065,-0.08115441352128983,0.5385286211967468,-0.057135310024023056
1778807378.3442929,0.16630416870117187,-9.819580078125,-0.5502557373046876,0.3661055266857147,0.8637230396270752,0.025205183774232864
1778807378.364824,-0.5812413024902344,-8.040379943847658,1.8218614196777345,0.43281489610671997,0.9944280385971069,0.07739339023828506
1778807378.3850307,-1.1202703857421876,-7.739954681396485,2.598446502685547,0.20033347606658936,0.8203423023223877,-0.048888854682445526
1778807378.6965408,-1.7049545288085939,-9.415570220947266,1.7682728576660156,0.11989739537239075,1.119484782218933,0.04107118397951126
1778807378.71782,-1.6193325805664063,-9.525591430664063,1.5920892333984376,0.14067521691322327,1.1244550943374634,0.02794528752565384
1778807378.7365036,-1.6277151489257813,-9.526938629150392,1.7193246459960938,0.14035798609256744,1.1107127666473389,-0.009873599745333195
1778807378.7556016,-1.490899658203125,-9.420210571289063,1.8405725097656251,0.11408048868179321,1.1237852573394775,-0.028066951781511307
1778807378.7755609,-1.4638059997558595,-9.26633056640625,1.811682586669922,0.07915560156106949,1.117276668548584,-0.05243056267499924
1778807378.7970614,-1.4159056091308595,-9.152417449951173,1.8509010314941408,0.055328838527202606,1.1160486936569214,-0.051613323390483856
1778807378.8161256,-1.526675262451172,-9.260642395019532,1.8696121215820314,0.0486912839114666,1.0932579040527344,-0.08668819069862366
1778807378.8361254,-1.6790583801269532,-9.430539093017579,1.8059944152832033,0.05506721884012222,1.1008799076080322,-0.12458723783493042
1778807378.8568811,-1.8776953125,-9.522747344970703,1.5628999328613282,0.06202017515897751,1.124272346496582,-0.18659502267837524
1778807378.878142,-1.9582278442382814,-9.349707183837891,1.5700849914550783,0.0736536830663681,1.0993342399597168,-0.2333158552646637
1778807378.8998177,-1.4184503173828125,-9.343270568847657,1.7527052307128907,0.08245425671339035,1.1081708669662476,-0.19305233657360077
1778807378.9195113,-1.6578025817871094,-9.450597381591797,1.8136285400390626,0.08299530297517776,1.0974104404449463,-0.18189318478107452
1778807378.9413533,-1.9468515014648438,-9.428144073486328,1.714833984375,0.0644058883190155,1.120370626449585,-0.18174821138381958
1778807378.961375,-2.1736299133300783,-9.297465820312501,1.877545623779297,0.06641164422035217,1.1192203760147095,-0.21554778516292572
1778807378.9826448,-1.8994001770019533,-9.158854064941407,2.116897888183594,0.0777207687497139,1.096670150756836,-0.2247927188873291
1778807379.0028715,-1.7395326232910158,-9.430539093017579,2.2766157531738282,0.08498433977365494,1.0655126571655273,-0.22507718205451965
1778807379.02308,-1.6357983398437501,-9.85071533203125,2.2875430297851564,0.03355009853839874,0.9894924163818359,-0.24272722005844116
1778807379.0447168,-1.5500267028808594,-10.146051177978515,2.2219793701171877,0.0011313892900943756,0.9273918271064758,-0.24656285345554352
1778807379.0658336,-1.5880476379394532,-10.255473632812501,2.2106030273437502,0.004246863536536694,0.8757933378219604,-0.2412567436695099
1778807379.086273,-1.6349002075195314,-10.164762268066406,2.3435266113281252,0.00400545634329319,0.7858832478523254,-0.24708767235279083
1778807379.107443,-1.4673985290527345,-9.789642333984375,2.92431884765625,-0.05079140514135361,0.7068321108818054,-0.19742687046527863
1778807379.1282613,-1.5754737854003906,-9.902357940673829,3.143463134765625,-0.02183055877685547,0.6350197196006775,-0.1372237205505371
1778807379.146783,-2.2335054016113283,-10.56967025756836,2.5403672790527345,-0.0034471172839403152,0.5396448969841003,-0.14064495265483856
1778807379.1674154,-2.522704010009766,-11.311826934814453,1.2515473937988282,-0.2734423875808716,0.39126327633857727,-0.19865655899047852
1778807379.1875834,-2.479893035888672,-11.984528045654297,-0.4836442565917969,-0.30053284764289856,0.2688232362270355,-0.3213558793067932
1778807379.210037,-2.363734588623047,-12.277618560791016,-1.5521223449707031,-0.1385720670223236,0.40769216418266296,-0.34241798520088196
1778807379.2299764,-1.8269508361816407,-11.25554397583008,-1.415606231689453,0.10318062454462051,0.48292243480682373,-0.3100149631500244
1778807379.2506883,-1.2841795349121095,-9.636510772705078,-0.525706787109375,0.23012878000736237,0.4905865788459778,-0.20841318368911743
1778807379.2723205,-1.0792556762695313,-7.869884490966797,0.5514532470703125,0.04137822985649109,0.41561511158943176,0.05744970217347145
1778807379.2930088,-1.580413513183594,-6.70889877319336,0.23007156372070314,0.09371410310268402,0.389060378074646,0.11891407519578934
1778807379.3138015,-2.312091979980469,-6.849157104492188,-0.07095245361328126,0.2728491723537445,0.2991224229335785,0.01048094592988491
1778807379.3349273,-2.515668640136719,-8.249794464111329,-0.0014968872070312501,0.19449591636657715,0.24525167047977448,-0.11320436745882034
1778807379.3549569,-1.0590476989746094,-10.635832672119141,0.051043853759765626,-0.14667204022407532,0.15817731618881226,-0.13307838141918182
1778807379.37609,-0.5665718078613281,-11.934981079101563,-0.6325845336914063,-0.2395189106464386,0.12430300563573837,-0.09291106462478638
1778807379.3968952,-0.8026309204101563,-12.319381713867188,-0.9451345825195313,0.03643454611301422,0.12726236879825592,-0.10317578911781311
1778807379.4205468,-1.2533436584472657,-10.664722595214844,-0.20672012329101563,0.3237949311733246,0.09800966084003448,-0.18207593262195587
1778807379.4406211,-1.4206956481933595,-9.182654571533204,1.2252021789550782,0.2088141143321991,-0.06776755303144455,-0.25482210516929626
1778807379.4601722,-1.141226806640625,-8.170010375976563,1.9401155090332032,-0.014688145369291306,-0.15100134909152985,-0.1818799376487732
1778807379.4807603,-0.9081614685058594,-7.958799591064453,1.2981005859375,-0.09388650953769684,-0.20034171640872955,-0.07981459051370621
1778807379.4998226,-0.8861572265625001,-8.205486602783203,0.8152047729492188,-0.10129313915967941,-0.20932215452194214,-0.021083395928144455
1778807379.524675,-1.1391311645507813,-8.687783660888673,0.8300239562988282,-0.1073540523648262,-0.2733553647994995,0.11352162808179855
1778807379.5445206,-1.4630575561523438,-9.572444000244142,1.0873388671875,-0.12673769891262054,-0.3723755180835724,0.12039511650800705
1778807379.5661123,-1.499132537841797,-9.733059997558595,1.3412109375,-0.15230792760849,-0.4436269700527191,0.12076782435178757
1778807379.5862873,-1.6621435546875,-9.695188751220703,1.3696517944335938,-0.20770597457885742,-0.5014463067054749,0.07857315242290497
1778807379.6093967,-1.469194793701172,-9.3932666015625,1.176104278564453,-0.20658862590789795,-0.5749607086181641,0.04000949114561081
1778807380.629663,-2.4707620239257815,-11.434871063232423,2.115700378417969,-0.06369274109601974,-0.05309450253844261,-0.024969402700662613
1778807380.6502972,-2.652184753417969,-12.105476531982422,1.0886860656738282,-0.30532681941986084,-0.08626963198184967,-0.08308783173561096
1778807380.6699486,-2.3129901123046874,-12.375215606689453,-0.36658767700195316,-0.25012585520744324,-0.09955937415361404,-0.1667320430278778
1778807380.6912296,-2.0098704528808593,-12.042457580566406,-0.3441343688964844,0.05355899780988693,-0.04306149482727051,-0.19183550775051117
1778807380.7133682,-1.7618362426757814,-10.897937622070312,1.036893768310547,0.08241593092679977,-0.16050508618354797,-0.15146371722221375
1778807380.734767,-1.6434324645996095,-9.769883422851564,0.9361532592773438,-0.036814406514167786,-0.19382405281066895,-0.06619087606668472
1778807380.7574768,-1.4941928100585937,-8.61293930053711,-0.28306137084960936,-0.035820767283439636,-0.21437881886959076,-0.03970395401120186
1778807380.779187,-1.1166778564453126,-8.022866363525392,-0.8068222045898438,-0.04845243692398071,-0.21749387681484222,-0.01346017885953188
1778807380.8001666,-1.0364447021484375,-7.572303314208985,-1.3016931152343751,-0.03741193562746048,-0.12342976033687592,0.04814363643527031
1778807380.8206172,-1.2557386779785158,-7.7285783386230476,-0.9044192504882813,0.07568905502557755,-0.05113345757126808,0.07173232734203339
1778807380.8418918,-1.4115646362304688,-8.804391174316407,0.128133544921875,0.1082896888256073,-0.1057407483458519,-0.002099079778417945
1778807380.8689213,-0.8171507263183594,-10.763367462158204,-0.14459930419921876,-0.0729285255074501,-0.26575106382369995,-0.12590093910694122
1778807380.8922396,-0.23067031860351564,-11.925550689697266,-0.8437953186035156,-0.14564023911952972,-0.4055338501930237,-0.16480335593223572
1778807380.9119923,-0.08247848510742188,-12.200528869628906,-1.5042219543457032,0.06090404838323593,-0.3267067074775696,-0.11232510209083557
1778807380.9315646,-0.8217910766601563,-11.02143081665039,-1.3801300048828127,0.2656310200691223,-0.29045847058296204,-0.13945786654949188
1778807380.9508188,-1.5049703979492188,-9.402098236083985,0.09205856323242188,0.23851461708545685,-0.39921632409095764,-0.2032822221517563
1778807380.9703035,-1.2376263427734375,-8.222251739501953,1.216520233154297,0.059294868260622025,-0.5251992344856262,-0.17807386815547943
1778807380.9935741,-0.8795709228515626,-7.845784606933594,0.9165440368652344,-0.08872173726558685,-0.6014274954795837,-0.09594447910785675
1778807381.0159218,-0.501606903076172,-8.346493377685547,0.23680755615234375,-0.12734465301036835,-0.6607112288475037,-0.0030440986156463623
1778807381.0349498,-0.38559814453125,-9.062155151367188,0.13412109375,-0.09106890112161636,-0.7004554271697998,0.08699790388345718
1778807381.0546231,-0.5054988098144532,-9.806856536865235,0.2664459228515625,-0.09186874330043793,-0.7273494601249695,0.1626853495836258
1778807381.0759501,-1.1190728759765625,-10.25876678466797,0.4872367858886719,-0.1540086418390274,-0.7524595260620117,0.1440306007862091
1778807381.0972948,-1.01309326171875,-10.255773010253908,0.52929931640625,-0.13870009779930115,-0.8601087331771851,0.028200559318065643
1778807381.1181788,-0.4044589233398438,-9.853709106445313,0.4293072509765625,-0.0808136835694313,-0.900070309638977,0.0005195280537009239
1778807381.139234,-0.23665786743164063,-9.42095901489258,0.5517526245117188,-0.08668436855077744,-0.9165825843811035,0.04121379926800728
1778807381.1638575,-0.4351451110839844,-9.41197769165039,0.5325924682617188,-0.14105224609375,-0.908569872379303,0.10150942206382751
1778807381.1846619,-0.95082275390625,-9.578880615234375,0.771046600341797,-0.12644752860069275,-0.9324186444282532,0.09363269060850143
1778807381.204042,-0.9111552429199219,-9.590706024169922,0.9343569946289063,-0.09029058367013931,-0.9463781714439392,0.09978698939085007
1778807381.266767,-0.8262817382812501,-9.663454742431641,0.9303153991699219,-0.053097113966941833,-0.9900164604187012,0.17381948232650757
1778807381.2903845,-0.7041357421875001,-9.767787780761719,0.9391470336914063,-0.04525389522314072,-0.9851422905921936,0.18720176815986633
1778807381.3121305,-0.6042933654785156,-9.811197509765625,1.0437794494628907,-0.0700533390045166,-0.9809209704399109,0.2061871737241745
1778807381.3313766,-0.5074447631835938,-9.751172332763673,1.1000624084472657,-0.058392513543367386,-0.9743661880493164,0.23973707854747772
1778807381.3519769,-0.5613327026367188,-9.832153930664063,1.161285095214844,-0.04623052850365639,-0.9865180253982544,0.24421562254428864
1778807381.3759222,-0.7256909179687501,-9.849517822265625,1.2063414001464845,-0.06962952017784119,-0.9694796800613403,0.26436325907707214
1778807381.3959928,-1.0195298767089844,-9.781858520507813,1.3346246337890626,-0.08897092938423157,-0.994304358959198,0.24923840165138245
1778807381.4202201,-0.961600341796875,-9.752369842529298,1.531614990234375,-0.0762309655547142,-1.0438446998596191,0.24624577164649963
1778807381.442014,-0.8137078857421876,-9.349707183837891,1.7883311462402345,-0.09354304522275925,-1.07987642288208,0.31853654980659485
1778807381.4621205,-1.1365864562988282,-9.421408081054688,1.773511962890625,-0.07048945128917694,-1.1248672008514404,0.380963534116745
1778807381.4844532,-1.8061441040039063,-10.432854766845704,1.9414627075195314,-0.010629435069859028,-1.180044174194336,0.3241080939769745
1778807381.5093372,-1.8365309143066406,-11.91851531982422,1.4783258056640625,-0.4702651798725128,-1.2705954313278198,0.16120658814907074
1778807381.527417,-1.2576846313476564,-12.937296752929688,-0.7050338745117188,-0.5834036469459534,-1.2648305892944336,0.08680104464292526
1778807381.5472472,-0.5288502502441407,-12.894485778808594,-2.2647903442382815,-0.1397974193096161,-0.9428245425224304,0.18157696723937988
1778807381.5674796,-1.565145263671875,-11.020532684326172,-1.081201629638672,-0.008039357140660286,-0.9534955024719238,0.12920062243938446
1778807381.5884957,-1.8528469848632814,-9.331145782470704,1.0509645080566408,-0.2505773603916168,-1.1020092964172363,0.09874750673770905
1778807381.611101,-1.2166699218750001,-8.181985473632812,0.8039781188964844,-0.33508288860321045,-1.0836448669433594,0.2069549709558487
1778807381.6305737,-1.2638218688964844,-7.436535644531251,-1.1163784790039064,-0.19330640137195587,-1.0330308675765991,0.2669011056423187
1778807381.650655,-1.4795233154296876,-7.604785766601563,-1.4540762329101564,0.022528477013111115,-0.9794907569885254,0.2009289264678955
1778807381.6751275,-1.4078224182128907,-8.936865692138673,-0.9141490173339845,0.20851708948612213,-0.85547935962677,0.13051985204219818
1778807381.6956308,-1.1039543151855469,-10.06521926879883,0.46613067626953125,0.0853828564286232,-0.7891315221786499,0.14151284098625183
1778807381.7173378,-1.368603973388672,-11.122321014404298,0.8509803771972657,-0.20834290981292725,-0.7927058339118958,0.20200246572494507
1778807381.7387803,-1.9651135253906251,-11.516451416015625,0.03203338623046875,-0.31954723596572876,-0.7483648061752319,0.264847069978714
1778807381.7605448,-2.9964688110351565,-10.27029281616211,-0.9607022094726563,-0.1320250779390335,-0.6927439570426941,0.22788840532302856
1778807381.783498,-3.034040679931641,-9.074130249023439,-0.5761518859863282,0.1055605337023735,-0.7009379863739014,0.11881784349679947
1778807381.805482,-2.0158580017089847,-8.364156646728516,0.34024246215820314,0.17406025528907776,-0.6592517495155334,0.12588950991630554
1778807382.8867793,-0.5533992004394531,-9.573192443847656,0.5908213806152344,-0.08425600081682205,-0.788751482963562,0.029497012495994568
1778807382.9115596,-0.7478448486328125,-9.605674896240235,0.6457571411132813,-0.1132088378071785,-0.809110164642334,0.04079291597008705
1778807382.9324486,-1.0940748596191407,-9.584718475341797,0.7250921630859375,-0.12028367817401886,-0.8203138709068298,0.04596506804227829
1778807382.9516163,-1.1850856018066407,-9.45643524169922,0.8566685485839844,-0.1244625523686409,-0.863914430141449,0.04463401809334755
1778807382.9735384,-1.0005194091796876,-9.48517547607422,1.0243199157714844,-0.13181518018245697,-0.8719488382339478,0.09982091933488846
1778807382.9943337,-1.2253518676757813,-9.4603271484375,1.0192304992675782,-0.149481862783432,-0.8937188386917114,0.13784125447273254
1778807383.0196974,-1.2174183654785158,-9.514514465332033,0.8966354370117188,-0.12603363394737244,-0.9310556650161743,0.13946124911308289
1778807383.2771513,-1.0997630310058595,-9.581125946044923,0.9186396789550781,-0.10214404761791229,-0.920465350151062,0.17735075950622559
1778807383.3007407,-1.554217987060547,-8.585995330810547,2.3011647033691407,-0.25187844038009644,-1.2184622287750244,0.1891731470823288
1778807383.3220515,-1.304088134765625,-8.932225341796876,0.4986131286621094,-0.4550723135471344,-1.350752592086792,0.2841198146343231
1778807383.343173,-1.5176939392089845,-9.335486755371095,-1.1536509704589843,-0.3893744647502899,-1.3392342329025269,0.3580237627029419
1778807383.3640854,-2.0811222839355468,-9.561516723632813,-1.8190173339843752,-0.2458018958568573,-1.24828040599823,0.35651475191116333
1778807383.3839335,-2.414928131103516,-9.730215911865235,-1.5682887268066408,-0.13310633599758148,-1.1893271207809448,0.2603795528411865
1778807383.4051502,-2.3270608520507814,-9.797725524902344,-0.7131170654296876,-0.15492352843284607,-1.2416157722473145,0.13007859885692596
1778807383.4264863,-2.281106414794922,-9.652078399658203,0.09774673461914063,-0.2622481882572174,-1.3220502138137817,0.10327837616205215
1778807383.4478128,-2.3544538879394534,-9.406738586425782,0.21899459838867188,-0.29545915126800537,-1.3420987129211426,0.1671787053346634
1778807383.4686515,-2.615061950683594,-9.300908660888672,0.09774673461914063,-0.27552980184555054,-1.3470778465270996,0.2204650193452835
1778807383.490534,-3.045117645263672,-9.840985565185548,-0.1830693054199219,-0.27273881435394287,-1.3528656959533691,0.2428985834121704
1778807383.5178852,-2.950514373779297,-10.097102966308594,-0.3794609069824219,-0.2767665982246399,-1.4041402339935303,0.2008289247751236
1778807383.5432475,-2.6967919921875003,-9.770482177734376,-0.5140310668945313,-0.23957470059394836,-1.3781286478042603,0.19053198397159576
1778807383.5632708,-2.6165588378906253,-9.328750762939453,-0.11690689086914063,-0.21379238367080688,-1.386675477027893,0.172461599111557
1778807383.5832386,-2.4876768493652346,-8.989107055664062,0.0622705078125,-0.28601890802383423,-1.3949048519134521,0.18484024703502655
1778807383.6051548,-2.3035597229003906,-8.87639144897461,-0.02245330810546875,-0.328418105840683,-1.3859562873840332,0.1944252997636795
1778807383.6263409,-2.2314097595214846,-8.882977752685548,-0.23620880126953125,-0.3787645697593689,-1.3448009490966797,0.2166222482919693
1778807383.6474617,-2.468367004394531,-9.049730987548829,-0.3119512939453125,-0.4362403452396393,-1.3047378063201904,0.22054260969161987
1778807383.6688101,-3.01532958984375,-9.44595703125,-0.36239639282226566,-0.4620576500892639,-1.2662878036499023,0.18818211555480957
1778807383.6910322,-2.9484187316894532,-9.610015869140625,-0.4309538269042969,-0.4424227476119995,-1.27195405960083,0.14493711292743683
1778807383.7131956,-2.7071205139160157,-9.73425750732422,-0.32602203369140625,-0.4259796738624573,-1.2656450271606445,0.1435701847076416
1778807383.7351708,-2.6589207458496094,-9.727371826171876,0.027093658447265627,-0.4675617218017578,-1.280387043952942,0.17417468130588531
1778807383.7552066,-2.766097869873047,-9.595945129394531,0.23201751708984375,-0.4636862874031067,-1.3147228956222534,0.1628025323152542
1778807383.776025,-2.78061767578125,-9.539512481689453,0.2442919921875,-0.41392698884010315,-1.3209562301635742,0.13995157182216644
1778807383.7969437,-2.750829620361328,-9.494905242919922,0.2851570129394531,-0.3985992670059204,-1.3294278383255005,0.0978521853685379
1778807383.8181198,-2.6217979431152343,-9.520052947998048,0.15881973266601562,-0.4046373963356018,-1.3125483989715576,0.06420779973268509
1778807383.8382494,-2.6888584899902344,-9.524393920898438,0.07080276489257813,-0.39079272747039795,-1.2798516750335693,0.024797946214675903
1778807383.8762271,-2.7256819152832032,-9.355694732666016,-0.04221221923828125,-0.26457318663597107,-1.2006845474243164,-0.04876122623682022
1778807383.8954422,-2.8036697387695315,-9.32426010131836,0.21869522094726562,-0.20995528995990753,-1.1682524681091309,-0.06750383228063583
1778807383.915003,-2.9633876037597657,-9.363628234863281,0.3288661193847656,-0.18476636707782745,-1.1341001987457275,-0.09324784576892853
1778807383.936387,-3.0948143005371094,-9.328002319335939,0.34682876586914063,-0.1523059457540512,-1.098573088645935,-0.1149783805012703
1778807383.958477,-3.0937664794921877,-9.24282943725586,0.4340972900390625,-0.12527717649936676,-1.0697752237319946,-0.10233043879270554
1778807383.98027,-3.204236755371094,-9.262738037109376,0.36314483642578127,-0.08920536190271378,-1.036864995956421,-0.09174720197916031
1778807384.001777,-3.131038970947266,-9.429341583251954,0.37317398071289065,-0.03741759806871414,-0.9885120391845703,-0.08103146404027939
1778807384.0223727,-2.985242156982422,-9.549242248535156,0.5355862426757813,0.04370983690023422,-0.939834475517273,-0.08015014976263046
1778807384.0426683,-2.9368927001953127,-9.465266876220703,0.7530839538574219,0.06378627568483353,-0.9126741886138916,-0.0784369632601738
1778807384.0640721,-2.8601023864746096,-9.341324615478516,0.7780819702148438,0.10099857300519943,-0.8902368545532227,-0.08210080116987228
1778807384.083532,-2.7562184143066406,-9.260642395019532,0.711171112060547,0.14660994708538055,-0.8630667328834534,-0.08781594783067703
1778807384.1030877,-2.6632617187500003,-9.426796875,0.6251000976562501,0.16534240543842316,-0.8215643167495728,-0.10126251727342606
1778807384.1256375,-2.4650738525390627,-9.70985824584961,0.6027964782714844,0.1224047988653183,-0.7422617673873901,-0.08543933928012848
1778807384.1461494,-2.3269111633300783,-10.046059112548829,0.6219566345214844,0.0763726532459259,-0.6810846924781799,-0.06143172085285187
1778807384.1688783,-2.658621368408203,-10.023007049560547,0.3177891540527344,-0.039947688579559326,-0.7248232960700989,-0.11046522855758667
1778807384.1892383,-2.7837611389160157,-9.908944244384767,-0.5333409118652344,-0.04966207593679428,-0.7388390302658081,-0.17783327400684357
1778807384.2107959,-2.684367828369141,-9.805359649658204,-0.8065228271484376,0.22338560223579407,-0.7016267776489258,-0.23319174349308014
1778807384.2342632,-2.561623077392578,-9.6998291015625,0.03397933959960937,0.21557073295116425,-0.7517461776733398,-0.20416948199272156
1778807384.254179,-2.9678782653808593,-9.503138122558594,0.9554631042480469,0.07686666399240494,-0.8596964478492737,-0.16305677592754364
1778807384.2765896,-3.074905700683594,-9.29072982788086,0.26734405517578125,0.028772592544555664,-0.8963493704795837,-0.10121162980794907
1778807384.297015,-2.728076934814453,-8.964707794189454,-0.07843688964843751,0.05748062953352928,-0.8801508545875549,0.023203028365969658
1778807384.3172133,-2.323019256591797,-8.9286328125,0.1579216003417969,0.03417104482650757,-0.9342846870422363,0.12951388955116272
1778807384.3452847,-1.3431568908691407,-9.238189086914064,0.5968089294433594,-0.03861082345247269,-1.0667411088943481,0.26241010427474976
1778807384.367607,-1.1594888305664064,-9.539213104248047,0.9168434143066406,-0.09654610604047775,-1.1589637994766235,0.2746230363845825
1778807384.387737,-1.289568328857422,-10.05908203125,0.9904902648925782,-0.19620414078235626,-1.259717583656311,0.21719279885292053
1778807384.409376,-1.3391152954101564,-10.832673339843751,0.5077441406250001,-0.3893176019191742,-1.362008810043335,-0.009642533026635647
1778807384.4294417,-1.0234217834472656,-11.39685012817383,-0.4105961608886719,-0.35083964467048645,-1.2692464590072632,-0.10884205996990204
1778807384.4516494,-0.19953506469726565,-10.981014862060547,-0.7958949279785157,-0.18863394856452942,-1.123942255973816,-0.11021038889884949
1778807384.4720082,-0.06122268676757813,-9.719138946533203,-0.2721340942382813,-0.11768842488527298,-1.045127511024475,-0.08820272237062454
1778807384.4924512,-0.5749543762207031,-8.468639373779297,1.0193801879882813,-0.15384504199028015,-1.0563750267028809,-0.07635445147752762
1778807384.5148685,-0.9653425598144532,-8.507708129882813,1.29091552734375,-0.21494349837303162,-1.081728219985962,-0.07984865456819534
1778807384.5361245,-1.2073892211914063,-9.018146667480469,1.2424163818359375,-0.2553267180919647,-1.076208233833313,-0.0668313130736351
1778807384.55592,-1.4066249084472657,-9.620194702148439,1.0057585144042969,-0.26121985912323,-1.073545217514038,-0.05779131501913071
1778807384.5755508,-1.52562744140625,-9.807455291748047,0.99393310546875,-0.2463589608669281,-1.063539743423462,-0.06278849393129349
1778807384.595103,-1.5911911010742188,-9.635163574218751,1.050066375732422,-0.2267480343580246,-1.0640833377838135,-0.0689031183719635
1778807384.6149278,-1.5385006713867189,-9.496102752685548,1.1391311645507813,-0.19566947221755981,-1.0531206130981445,-0.06057701259851456
1778807384.6367166,-1.653611297607422,-9.562564544677734,1.360221405029297,-0.21441680192947388,-1.08159339427948,-0.042871035635471344
1778807384.6597023,-1.7345928955078125,-9.667795715332032,1.3211526489257812,-0.22364941239356995,-1.144614338874817,-0.023821311071515083
1778807384.6806738,-1.6780105590820313,-9.663454742431641,1.1057505798339844,-0.19185355305671692,-1.1131333112716675,0.037041377276182175
1778807384.7009966,-1.744622039794922,-9.505233764648438,1.1606863403320313,-0.17196597158908844,-1.0871713161468506,0.09388907253742218
1778807384.72188,-1.85135009765625,-9.26962371826172,1.3465997314453126,-0.1703149378299713,-1.1244289875030518,0.0977088212966919
1778807384.7465613,-1.550625457763672,-9.283245391845703,1.5295193481445313,-0.19672775268554688,-1.2046269178390503,0.08990027010440826
1778807384.7684064,-1.2966036987304688,-9.350305938720703,1.5527210998535157,-0.20499321818351746,-1.2237282991409302,0.15378731489181519
1778807384.7886276,-1.4840139770507814,-9.492809600830078,1.4563215637207032,-0.18118023872375488,-1.2341206073760986,0.17020371556282043
1778807384.8090634,-1.6401393127441406,-9.700128479003906,1.4636563110351564,-0.1635056734085083,-1.2882481813430786,0.14125438034534454
1778807384.8294506,-1.466799774169922,-9.813592529296875,1.4563215637207032,-0.16704688966274261,-1.3255242109298706,0.1344289630651474
1778807385.053769,-1.3826747131347656,-9.317823486328125,1.1831396484375,-0.15352892875671387,-1.0282460451126099,0.14808662235736847
1778807385.0770838,-2.0086729431152346,-8.436156921386718,1.1401789855957032,-0.2965192198753357,-1.1253676414489746,0.06732632964849472
1778807385.0983691,-1.3751902770996094,-8.128845977783204,-1.071621551513672,-0.15567006170749664,-1.096186876296997,0.03170447424054146
1778807385.1186306,-0.8798703002929688,-8.577612762451173,-1.6287629699707031,0.07642768323421478,-0.9586910605430603,0.05487613007426262
1778807385.1395566,-0.841699676513672,-9.119635620117188,-0.9077124023437501,0.21981045603752136,-0.7810132503509521,0.10954231023788452
1778807385.1617346,-1.4247372436523438,-9.739646301269532,0.42242156982421875,0.20367850363254547,-0.7238532304763794,0.12111009657382965
1778807385.1821742,-2.2342538452148437,-10.166708221435547,1.24301513671875,0.037323225289583206,-0.7395839095115662,0.10163341462612152
1778807385.2033272,-2.542462921142578,-10.400671691894532,0.8726852416992188,-0.1735749989748001,-0.7638278007507324,0.14556387066841125
1778807385.226387,-2.587519226074219,-10.542277221679688,0.3107537841796875,-0.12075275182723999,-0.7431002855300903,0.20143908262252808
1778807385.2466016,-2.907703399658203,-10.232271881103516,0.2315684509277344,-0.030470479279756546,-0.7380818128585815,0.20080964267253876
1778807385.269526,-2.5303381347656253,-9.047635345458986,0.5493576049804688,-3.087334334850311e-05,-0.7470057010650635,0.20025010406970978
1778807385.291068,-2.0948936462402346,-8.574768676757813,0.5345384216308594,0.029858596622943878,-0.6839680671691895,0.20166827738285065
1778807385.313067,-1.545835418701172,-8.435109100341798,0.70892578125,0.035537272691726685,-0.6012547612190247,0.19947867095470428
1778807385.3344421,-1.2840298461914064,-8.740324401855469,0.8291258239746094,-0.009760303422808647,-0.484914094209671,0.17564807832241058
1778807385.3553956,-1.402134246826172,-9.228758697509766,0.8798703002929688,-0.038118571043014526,-0.4223581850528717,0.12751713395118713
1778807385.3760417,-1.773511962890625,-9.641749877929689,0.9692344665527344,-0.04730591922998428,-0.37250030040740967,0.060832563787698746
1778807385.3956208,-2.2915846252441407,-9.709259490966797,0.9220825195312501,-0.006672963034361601,-0.34200483560562134,-0.02128017693758011
1778807385.414441,-2.4034020996093752,-9.501790924072266,0.8116122436523437,0.060604121536016464,-0.30156752467155457,-0.06349583715200424
1778807385.4343843,-2.18665283203125,-9.145980834960938,1.1401789855957032,0.07095906883478165,-0.26950904726982117,-0.024951931089162827
1778807385.4549024,-2.205363922119141,-8.919202423095703,1.6363970947265625,0.0230781901627779,-0.3018478751182556,0.0160981398075819
1778807385.478142,-2.653531951904297,-8.818761291503908,1.6693286132812502,-0.025892263278365135,-0.33807873725891113,0.02775750868022442
1778807385.5016632,-2.838846588134766,-8.661288757324218,1.5049703979492188,-0.019381171092391014,-0.3516392111778259,0.013028465211391449
1778807385.522248,-2.695594482421875,-8.586294708251954,1.6136444091796875,0.016685066744685173,-0.3132352828979492,-0.01135716401040554
1778807385.5428221,-2.3739134216308595,-8.79256576538086,2.0651055908203126,-0.031804073601961136,-0.3250598609447479,-0.0062276702374219894
1778807385.5648487,-2.2598506164550782,-9.08430908203125,2.332449645996094,-0.10126650333404541,-0.33195000886917114,-0.00808707159012556
1778807385.5880854,-2.365381164550781,-9.333241424560548,2.0782781982421876,-0.12186604738235474,-0.3584194779396057,-0.05368424579501152
1778807385.6099694,-2.2529649353027343,-9.536219329833985,1.985321502685547,-0.10982011258602142,-0.3775908946990967,-0.09982116520404816
1778807385.631806,-2.2143452453613284,-9.59923828125,1.9106268310546877,-0.10413419455289841,-0.3341987729072571,-0.12361633032560349
1778807385.6531017,-2.2848486328125,-9.559870147705078,1.9071839904785157,-0.08148230612277985,-0.2930770516395569,-0.13967812061309814
1778807385.676399,-2.3837928771972656,-9.77886474609375,1.9329304504394533,-0.025998342782258987,-0.23178374767303467,-0.1584482640028
1778807385.696482,-2.123184814453125,-10.110275573730469,2.106419677734375,-0.01990828663110733,-0.20158962905406952,-0.1499011367559433
1778807385.7162955,-1.894310760498047,-10.322833557128908,2.3646327209472657,-0.059098850935697556,-0.19483676552772522,-0.10568498075008392
1778807385.7354798,-2.22497314453125,-10.813662872314454,2.412682800292969,-0.046475984156131744,-0.21040016412734985,-0.04290544614195824
1778807385.7548118,-3.1422656250000003,-11.498039703369141,1.811532897949219,-0.13656574487686157,-0.21709635853767395,-0.07616550475358963
1778807385.7760668,-3.399879913330078,-11.991114349365235,0.7424560546875001,-0.265941858291626,-0.29556402564048767,-0.2348744422197342
1778807385.7970006,-2.8575576782226566,-12.082723846435547,0.11032058715820313,-0.10595530271530151,-0.3143722116947174,-0.31616389751434326
1778807385.8188233,-2.4011567687988284,-11.382629699707032,0.619112548828125,0.07465499639511108,-0.28669995069503784,-0.25467073917388916
1778807385.839614,-2.3400837707519533,-10.167157287597657,1.058448944091797,0.06333304941654205,-0.3291122019290924,-0.09727327525615692
1778807385.8597722,-2.2802082824707033,-8.845106506347657,0.4328997802734375,-0.05014166980981827,-0.3365762531757355,0.1234719455242157
1778807385.88355,-1.730251922607422,-7.3322026062011725,-0.18471588134765626,-0.052762582898139954,-0.3367173671722412,0.17451052367687225
1778807385.905351,-1.3768368530273438,-7.081324310302735,0.021405487060546877,-0.006675520911812782,-0.4025292992591858,0.18278774619102478
1778807385.9261563,-1.33402587890625,-8.32598602294922,0.24459136962890626,-0.031138820573687553,-0.4813985228538513,0.17700672149658203
1778807385.9456353,-1.4591656494140626,-10.42162811279297,0.044307861328125,-0.16295765340328217,-0.5596837997436523,0.09278126806020737
1778807385.9671116,-1.4678475952148438,-11.92285629272461,-0.38395156860351565,-0.1999165266752243,-0.6741816997528076,-0.08930360525846481
1778807385.9909136,-0.6647676086425781,-12.330308990478516,-0.7433541870117187,-0.02516241930425167,-0.5368317365646362,-0.11324906349182129
1778807386.0126574,-0.6673123168945313,-10.764564971923829,-0.4436773681640625,-0.006303718779236078,-0.5260115265846252,-0.13617832958698273
1778807386.03193,-0.9011260986328126,-9.061556396484375,0.07589218139648438,-0.020240236073732376,-0.5547364950180054,-0.15986405313014984
1778807386.0560594,-0.967438201904297,-7.858208770751953,0.7836204528808595,-0.034017473459243774,-0.5908935070037842,-0.12811879813671112
1778807386.0767827,-1.143472137451172,-8.099207611083985,0.9422904968261719,-0.114693284034729,-0.6685590744018555,-0.054156772792339325
1778807386.098736,-1.6941769409179688,-8.966504058837891,0.8000862121582032,-0.1997329294681549,-0.7490559816360474,0.015610294416546822
1778807386.1190164,-2.042801971435547,-9.798324279785156,0.6515950012207031,-0.17550988495349884,-0.7889514565467834,0.0052962470799684525
1778807386.1412432,-1.9694544982910158,-10.014474792480469,0.6667135620117188,-0.1323913186788559,-0.8427615165710449,-0.007674333639442921
1778807386.1627278,-1.2693603515625,-9.308243408203126,0.9922865295410157,-0.11945568025112152,-0.9089153409004211,0.019380217418074608
1778807386.1892416,-0.959205322265625,-9.078321533203125,1.0960208129882814,-0.14506925642490387,-0.9514540433883667,0.14839418232440948
1778807386.2111602,-1.0663824462890625,-9.282946014404297,1.0445278930664064,-0.1429842710494995,-0.9753332734107971,0.1846587210893631
1778807386.2323916,-1.6259188842773438,-9.621841278076172,0.7837701416015626,-0.13842131197452545,-0.969204306602478,0.14701825380325317
1778807386.2542708,-1.4747332763671877,-9.595645751953125,0.8018824768066407,-0.13367938995361328,-0.9502531886100769,0.10870750993490219
1778807386.2751613,-1.0289602661132813,-9.26109146118164,1.0217752075195312,-0.12309203296899796,-0.9453019499778748,0.12863916158676147
1778807386.296642,-0.8279283142089844,-9.14942367553711,1.2135264587402343,-0.09178496897220612,-0.9674590229988098,0.17634212970733643
1778807386.3161662,-0.9741741943359375,-9.224717102050782,1.3648617553710938,-0.08154541254043579,-0.9721571207046509,0.21164755523204803
1778807386.3380451,-1.210682373046875,-9.366771697998047,1.3439053344726564,-0.10218425840139389,-0.9505553841590881,0.229380264878273
1778807386.3589582,-1.3072315979003908,-9.516011352539063,1.2139755249023438,-0.08667289465665817,-0.9598095417022705,0.2115904837846756
1778807386.3800607,-1.2241543579101564,-9.654922485351562,1.3365705871582032,-0.0982232615351677,-0.9944279789924622,0.18536347150802612
1778807386.4018342,-0.9220825195312501,-9.984387359619141,1.4672488403320314,-0.13375280797481537,-1.014420747756958,0.18365412950515747
1778807386.4253545,-0.8869056701660156,-10.04995101928711,1.392554168701172,-0.16090956330299377,-1.0041528940200806,0.18603520095348358
1778807386.4879265,-1.2030482482910156,-9.90535171508789,1.9637663269042969,-0.1570906788110733,-1.0874788761138916,0.18583908677101135
1778807386.510334,-1.772164764404297,-10.781330108642578,2.2974224853515626,-0.1834564059972763,-1.1899287700653076,0.11632699519395828
1778807386.529995,-1.857187957763672,-11.553424530029297,0.9337582397460938,-0.4537753462791443,-1.1540842056274414,0.07640352100133896
1778807386.5497932,-1.1033555603027345,-12.255165252685547,-0.559237060546875,-0.5599374771118164,-1.1579197645187378,0.006012794561684132
1778807386.5700676,-0.6776408386230469,-11.60192367553711,-1.1090437316894532,-0.24955205619335175,-0.9173535108566284,0.08914443105459213
1778807386.5963397,-1.3370196533203125,-9.800719299316407,0.6005511474609375,-0.10335361957550049,-0.9647090435028076,0.09114789962768555
1778807386.6150594,-1.60705810546875,-8.5885400390625,1.839375,-0.2052379548549652,-1.1045904159545898,0.08394886553287506
1778807386.63427,-1.6393908691406252,-8.195906524658204,1.4293775939941407,-0.25221532583236694,-1.1471478939056396,0.0887577012181282
1778807386.6533265,-1.5247293090820313,-8.474926300048828,0.16375946044921877,-0.27330702543258667,-1.1560405492782593,0.08914967626333237
1778807386.6747541,-1.6822018432617187,-9.079219665527344,-0.9777667236328126,-0.2081204205751419,-1.1213324069976807,0.06941010802984238
1778807386.7026918,-2.2050645446777346,-9.876312103271484,-1.1642788696289064,0.018228061497211456,-1.0076484680175781,-0.023362498730421066
1778807386.7247734,-2.431693267822266,-9.955347747802735,0.20432510375976565,0.14036376774311066,-0.9735980033874512,-0.050666846334934235
1778807386.744784,-2.7334657287597657,-9.973460083007813,1.8091378784179688,-0.12709838151931763,-1.093659520149231,0.05263616144657135
1778807386.7661595,-2.8722271728515625,-10.214159545898438,1.6756155395507812,-0.3503061532974243,-1.1671470403671265,0.20625954866409302
1778807386.7876415,-2.942131805419922,-9.977801055908204,0.3974235534667969,-0.39664196968078613,-1.2036280632019043,0.28312742710113525
1778807386.8103132,-3.1754965209960937,-8.751101989746093,-0.9427395629882813,-0.24098603427410126,-1.206209659576416,0.2401932030916214
1778807386.8304868,-2.515518951416016,-8.368048553466798,-0.5557942199707031,-0.08383269608020782,-1.126671552658081,0.21342352032661438
1778807386.8517814,-1.7907261657714844,-8.411158905029298,0.4920268249511719,-0.0794045478105545,-1.0729039907455444,0.23754668235778809
1778807386.8717542,-1.5965798950195313,-8.952283630371094,0.9431886291503907,-0.17838793992996216,-1.0309741497039795,0.2818217873573303
1778807386.893002,-2.023641815185547,-9.541159057617188,0.6439608764648438,-0.22446469962596893,-1.000815510749817,0.27325811982154846
1778807386.912308,-2.5438101196289065,-9.785451049804688,0.37437149047851564,-0.16628217697143555,-0.9659380316734314,0.1541794091463089
1778807386.9327562,-2.658321990966797,-9.59340042114258,0.5099894714355468,-0.144858255982399,-0.9817990064620972,0.06875801086425781
1778807386.952492,-2.2960752868652343,-9.320068817138672,0.6524931335449219,-0.150649756193161,-0.9818021655082703,0.051312386989593506
1778807386.9735146,-1.9360739135742189,-9.059011688232422,0.8699908447265625,-0.19056129455566406,-0.9616809487342834,0.07715015858411789
1778807386.9926713,-1.9875668334960939,-8.830586700439454,0.9595046997070313,-0.21446742117404938,-0.9466673731803894,0.08886513859033585
1778807387.0126705,-2.2005738830566406,-8.863817596435547,1.0219248962402345,-0.22115740180015564,-0.9406293034553528,0.07888346910476685
1778807387.032919,-2.3056553649902347,-9.114246826171875,1.0397378540039064,-0.22156456112861633,-0.9498492479324341,0.04364769160747528
1778807387.052154,-2.1974304199218753,-9.451794891357423,1.0121951293945313,-0.2130487561225891,-0.9124051332473755,0.01168848667293787
1778807387.0736923,-2.135159912109375,-9.539213104248047,0.940045166015625,-0.14261814951896667,-0.8633240461349487,-0.025976724922657013
1778807387.09523,-2.1119581604003907,-9.426647186279297,1.150657196044922,-0.08523352444171906,-0.7993694543838501,-0.03205244615674019
1778807387.117884,-2.36867431640625,-9.474846954345704,1.64537841796875,-0.09965937584638596,-0.7759812474250793,-0.040956541895866394
1778807387.1380122,-2.4276516723632815,-9.508975982666016,1.4352154541015625,-0.10248784720897675,-0.764895498752594,-0.08938127011060715
1778807387.1583624,-2.139051818847656,-9.477092285156251,1.2528945922851562,-0.05587879940867424,-0.7020573019981384,-0.11350886523723602
1778807387.1797009,-2.0483404541015626,-9.511820068359375,1.490899658203125,-0.06195502728223801,-0.6576412320137024,-0.09026376157999039
1778807387.4443133,-2.0469932556152344,-9.780960388183594,1.5096107482910157,-0.09266658872365952,-0.662259042263031,-0.07992558926343918
1778807387.4663453,-1.4084211730957032,-11.356883239746095,0.4290078735351563,-0.10905084758996964,-1.0193514823913574,0.12322494387626648
1778807387.4850898,-1.2301419067382813,-13.14476531982422,-0.21899459838867188,-0.2635143995285034,-1.1606640815734863,0.06722225993871689
1778807387.5106661,-1.5896942138671877,-12.999417572021486,-1.0132429504394531,-0.04741282016038895,-1.1177887916564941,-0.009255683049559593
1778807387.5296152,-2.2721250915527347,-10.578501892089845,-0.8282276916503907,0.12845760583877563,-1.1433210372924805,-0.11234530806541443
1778807387.5503519,-2.424657897949219,-8.298592987060548,0.25342300415039065,0.060594458132982254,-1.2793097496032715,-0.18514294922351837
1778807387.5706818,-1.8019528198242187,-7.223977661132813,0.8958869934082032,-0.12445107102394104,-1.4112082719802856,-0.14402396976947784
1778807387.591445,-1.1692185974121094,-7.352859649658203,0.43185195922851566,-0.23215453326702118,-1.445219874382019,0.014023703522980213
1778807387.6127734,-1.12326416015625,-8.524024200439454,-0.039218444824218754,-0.2667003870010376,-1.4249444007873535,0.17150554060935974
1778807387.6336756,-1.8902691650390626,-9.998308410644531,0.3591032409667969,-0.305004358291626,-1.448575496673584,0.2283271849155426
1778807387.6549957,-2.085912322998047,-10.165361022949218,0.6647676086425781,-0.3646247684955597,-1.526411771774292,0.1910126805305481
1778807387.676192,-1.9724482727050783,-9.84442840576172,0.6915618896484376,-0.4296528398990631,-1.6270865201950073,0.11418101191520691
1778807387.6965399,-1.3683045959472657,-9.644893341064453,0.5230123901367187,-0.44835299253463745,-1.7142696380615234,0.08694437146186829
1778807387.7218266,-1.4229409790039063,-9.936187591552734,0.030087432861328128,-0.35613110661506653,-1.694331407546997,0.1331942081451416
1778807387.742836,-1.6822018432617187,-10.225685577392579,-0.039966888427734375,-0.3120926320552826,-1.663011908531189,0.08091055601835251
1778807387.7639067,-1.4217434692382813,-10.108030242919922,0.062420196533203125,-0.27600035071372986,-1.5830713510513306,0.04892106354236603
1778807387.7830741,-1.3144166564941406,-9.718839569091797,0.3212319946289063,-0.26839303970336914,-1.5155750513076782,0.10362980514764786
1778807387.8031197,-1.531614990234375,-9.550290069580079,0.7200027465820313,-0.2419477254152298,-1.5688821077346802,0.12139476835727692
1778807387.8246243,-1.3777349853515626,-9.519603881835938,0.7354206848144531,-0.2039426565170288,-1.57462739944458,0.17348738014698029
1778807387.8440564,-1.287173309326172,-9.404642944335938,0.5116360473632813,-0.2101919800043106,-1.530592441558838,0.21676228940486908
1778807387.864328,-1.337468719482422,-9.296118621826173,0.2597099304199219,-0.2617579698562622,-1.4829822778701782,0.17937107384204865
1778807387.883629,-1.030906219482422,-9.105115814208984,0.06825805664062501,-0.2621504068374634,-1.4231586456298828,0.1342296302318573
1778807387.9043922,-0.6988966369628906,-9.168883209228516,0.31524444580078126,-0.18251875042915344,-1.3420865535736084,0.1634325385093689
1778807387.9272077,-0.8363108825683594,-9.58292221069336,0.7937992858886719,-0.13389889895915985,-1.277890682220459,0.23034636676311493
1778807387.9727046,-1.4910493469238282,-9.977501678466798,0.7752378845214845,-0.16280993819236755,-1.2849360704421997,0.14480693638324738
1778807387.9929245,-1.3799803161621094,-9.717342681884766,0.7616162109375001,-0.12602463364601135,-1.2487332820892334,0.15914857387542725
1778807388.0114164,-1.6012202453613282,-9.712402954101563,1.0572514343261719,-0.14723387360572815,-1.2612570524215698,0.15877801179885864
1778807388.0339036,-1.5729290771484377,-9.943522338867188,1.0259664916992188,-0.16691648960113525,-1.2700750827789307,0.17646661400794983
1778807388.054357,-1.7485139465332031,-9.87840774536133,0.8816665649414063,-0.12508490681648254,-1.2492718696594238,0.2182103991508484
1778807388.0741425,-2.000889129638672,-9.575437774658203,1.1520043945312501,-0.107095867395401,-1.254915714263916,0.25125858187675476
1778807388.095172,-2.1317170715332034,-9.197773132324219,1.4295272827148438,-0.1339612901210785,-1.2949553728103638,0.29835250973701477
1778807388.113772,-2.4266038513183594,-9.399703216552735,1.7176780700683594,-0.10815277695655823,-1.388558030128479,0.2867899239063263
1778807388.1338732,-1.9245478820800783,-10.395432586669923,1.094673614501953,-0.2598854899406433,-1.4342551231384277,0.32605838775634766
1778807388.1537392,-1.4699432373046877,-11.313024444580078,-0.7337741088867188,-0.5596110224723816,-1.3784325122833252,0.38974830508232117
1778807388.1740286,-1.3317805480957032,-11.538006591796876,-1.6613951110839844,-0.491193562746048,-1.2153491973876953,0.43697959184646606
1778807388.195372,-2.1933888244628905,-10.704988861083985,-1.1683204650878907,-0.3903449475765228,-1.1295113563537598,0.389059841632843
1778807388.216645,-2.6171575927734376,-9.763446807861328,-0.3237767028808594,-0.3013816475868225,-1.1792737245559692,0.29173046350479126
1778807388.2390296,-2.2002745056152344,-8.894354095458985,0.3296145629882813,-0.28435400128364563,-1.2308725118637085,0.270732045173645
1778807388.2594209,-1.7178277587890627,-8.138575744628907,-0.18516494750976564,-0.35594484210014343,-1.3179553747177124,0.26159557700157166
1778807388.2801573,-1.6726217651367188,-8.276289367675782,-0.9264234924316407,-0.3243633210659027,-1.3174631595611572,0.2526709735393524
1778807388.300231,-1.7774038696289063,-8.84001708984375,-0.7012916564941407,-0.18689773976802826,-1.2809146642684937,0.23325803875923157
1778807388.3194287,-2.198927307128906,-9.835297393798829,0.2505789184570313,-0.09749001264572144,-1.2463054656982422,0.20668774843215942
1778807388.3393567,-2.673889617919922,-10.642568664550781,0.7110214233398438,-0.2452365607023239,-1.244987964630127,0.1687610000371933
1778807388.3600922,-2.661615142822266,-11.191926269531251,0.08472381591796875,-0.5253563523292542,-1.2743020057678223,0.1783929020166397
1778807388.3810768,-2.6837690734863284,-11.0889404296875,-0.9898915100097657,-0.5531424880027771,-1.2146295309066772,0.2404097616672516
1778807388.4004922,-3.383863220214844,-10.069709930419922,-1.3006452941894533,-0.2916117012500763,-1.1227948665618896,0.23073339462280273
1778807388.4208453,-3.627107391357422,-9.030570831298828,-0.5519023132324219,-0.05781041085720062,-1.1511590480804443,0.09853079915046692
1778807388.4444118,-2.6794281005859375,-8.500523071289063,0.415535888671875,-0.033324602991342545,-1.1201590299606323,0.1007046326994896
1778807388.4648356,-1.875150604248047,-8.255931701660156,0.7653584289550782,-0.09293778985738754,-1.047279953956604,0.2030821591615677
1778807388.4852457,-1.9031423950195314,-8.486152954101563,0.5598358154296875,-0.12113790214061737,-0.983140230178833,0.2489328682422638
1778807388.5093846,-2.62494140625,-9.234446868896486,0.06586303710937501,-0.12012622505426407,-0.9523426294326782,0.21986284852027893
1778807388.529145,-2.867586822509766,-9.548493804931642,0.17648300170898437,-0.093134805560112,-0.9425471425056458,0.15797770023345947
1778807388.550997,-2.9130921936035157,-9.68156707763672,0.5599855041503906,-0.09978082031011581,-0.9705507755279541,0.09510808438062668
1778807388.5714006,-2.690505065917969,-9.670340423583985,0.8178991699218751,-0.1646396517753601,-0.972816526889801,0.09147380292415619
1778807388.59365,-2.7080186462402347,-9.441316680908203,0.6870712280273438,-0.2307300567626953,-0.9253796339035034,0.09650673717260361
1778807388.614391,-2.844684448242188,-9.184301147460937,0.4740641784667969,-0.20811305940151215,-0.8909221291542053,0.056778863072395325
1778807388.642495,-2.791245574951172,-9.083710327148438,0.587977294921875,-0.1969740390777588,-0.8729541301727295,0.018655017018318176
1778807388.6639028,-2.631677398681641,-9.017398223876954,0.585582275390625,-0.16299405694007874,-0.7978359460830688,-0.0077967774122953415
1778807388.684444,-2.6614654541015628,-9.093290405273438,0.779578857421875,-0.13359767198562622,-0.768618106842041,-0.05420905351638794
1778807388.7035036,-2.6360183715820313,-9.156309356689453,1.0434800720214845,-0.1126079335808754,-0.7359949946403503,-0.07920486479997635
1778807388.7254605,-2.664758605957031,-9.195527801513672,1.0588980102539063,-0.09636721760034561,-0.6759569048881531,-0.08844531327486038
1778807388.746679,-2.8696824645996095,-8.978329467773438,1.0467732238769532,-0.0883612260222435,-0.6219868063926697,-0.07966023683547974
1778807388.7667696,-3.0064979553222657,-9.062155151367188,1.0027647399902344,-0.05925220623612404,-0.5712953209877014,-0.08678784966468811
1778807388.7863495,-2.8756700134277344,-9.234446868896486,1.1032058715820312,-0.021544933319091797,-0.5191712379455566,-0.09329786151647568
1778807388.8065157,-2.642454986572266,-9.320368194580078,1.1936178588867188,-0.028551552444696426,-0.48573246598243713,-0.08453960716724396
1778807388.826538,-2.535128173828125,-9.326355743408204,1.0672805786132813,-0.051254499703645706,-0.43706223368644714,-0.06557127833366394
1778807388.849066,-2.5583299255371097,-9.483379211425781,1.0919792175292968,-0.05836958438158035,-0.3487924635410309,-0.03967011347413063
1778807388.8700614,-2.714305572509766,-9.774972839355469,1.362466735839844,-0.04424475133419037,-0.30021554231643677,-0.05859169363975525
1778807388.890364,-2.573298797607422,-10.044262847900391,1.4410533142089845,0.024226360023021698,-0.2565806806087494,-0.11376769840717316
1778807388.9110484,-2.493065643310547,-10.233319702148439,1.5995736694335938,0.06952061504125595,-0.2019796371459961,-0.12727947533130646
1778807388.9321957,-2.541864166259766,-10.365943908691406,1.938618621826172,0.0667024478316307,-0.14797396957874298,-0.10368593037128448
1778807388.9548132,-3.0219158935546875,-11.100167083740235,1.2014016723632812,-0.06285826861858368,-0.11632094532251358,-0.10049201548099518
1778807388.9766984,-2.8033703613281253,-11.486813049316407,-0.06062393188476563,-0.05734897032380104,-0.07438864558935165,-0.14821459352970123
1778807388.9979248,-2.8527676391601564,-11.18998031616211,-0.036524047851562505,0.15308985114097595,0.07328243553638458,-0.14216551184654236
1778807389.0190408,-3.0481114196777344,-10.052944793701172,1.275347900390625,0.1836462914943695,0.09105335175991058,-0.12788118422031403
1778807389.0388906,-2.8732749938964846,-9.093140716552735,1.6591497802734376,0.09738311916589737,0.043693363666534424,-0.08287843316793442
1778807389.0603652,-2.7140061950683596,-8.487799530029298,1.1762539672851564,0.0828419104218483,-0.014036961831152439,-0.04174128174781799
1778807389.0809672,-2.5595274353027344,-8.231382751464844,0.6963519287109375,0.06975801289081573,-0.037537749856710434,-0.04608011990785599
1778807389.1026373,-2.346071319580078,-8.599916381835937,0.20267852783203125,0.054623328149318695,-0.019108952954411507,-0.04757626727223396
1778807389.1247084,-1.904938659667969,-9.285640411376953,-0.15073654174804688,-0.040481969714164734,-0.03872270509600639,-0.01262100599706173
1778807389.144328,-0.7560777282714845,-9.947264556884766,-1.0315049743652345,-0.1322256475687027,-0.04557373747229576,0.10312753915786743
1778807389.1667407,-0.6902146911621094,-9.823471984863282,-1.4862593078613282,-0.03896542638540268,-0.009250817820429802,0.21395857632160187
1778807389.1874878,-1.2967533874511719,-9.510472869873047,-0.5025050354003906,0.2040676474571228,0.038442645221948624,0.21444517374038696
1778807389.209007,-1.9881655883789064,-9.433233489990235,1.0770103454589843,0.1074729636311531,-0.16404959559440613,-0.05206509679555893
1778807389.2312303,-1.9452049255371096,-9.775721282958985,1.3391152954101564,-0.12318199872970581,-0.3041049838066101,-0.2091958373785019
1778807389.25173,-1.4364129638671876,-10.29035110473633,0.5086422729492188,-0.24526286125183105,-0.36127132177352905,-0.25940996408462524
1778807389.2721343,-1.1168275451660157,-10.610984344482423,-0.33485366821289064,-0.25267308950424194,-0.398315966129303,-0.2629989683628082
1778807389.2935777,-1.5524217224121095,-10.249037017822266,0.04819976806640625,-0.19975829124450684,-0.4640020728111267,-0.2955949604511261
1778807389.3553438,-1.3801300048828127,-8.169261932373047,0.8512797546386719,-0.2568354904651642,-0.6212285161018372,-0.13969390094280243
1778807389.3769808,-0.9195378112792969,-8.775052185058595,0.3691323852539063,-0.17577533423900604,-0.5636281967163086,0.09445355832576752
1778807389.3978422,-0.9900411987304688,-9.426647186279297,0.3273692321777344,-0.11558294296264648,-0.4774467647075653,0.1715703010559082
1778807389.4181776,-1.3404624938964844,-10.077942810058595,0.6803352355957032,-0.08380582928657532,-0.5121129155158997,0.1141766756772995
1778807389.440714,-1.573378143310547,-10.200238494873048,1.161285095214844,-0.11311426013708115,-0.6001973152160645,-0.0023562018759548664
1778807389.4638078,-1.3347743225097657,-9.64564178466797,1.1880793762207031,-0.18274496495723724,-0.659758448600769,-0.05959855765104294
1778807389.4848223,-1.0163864135742189,-9.253756713867189,0.6870712280273438,-0.1892319917678833,-0.6592037677764893,-0.024504700675606728
1778807389.505975,-1.0810519409179689,-9.12741943359375,0.3619473266601563,-0.09396374970674515,-0.5978335738182068,0.05110876262187958
1778807389.5285587,-1.422342224121094,-9.222471771240235,0.8641529846191407,-0.03450387716293335,-0.5836301445960999,0.102212093770504
1778807389.5492089,-1.8577867126464844,-9.317524108886719,1.4485377502441408,-0.10420563817024231,-0.6446399688720703,0.09129349887371063
1778807389.5700183,-1.9435583496093751,-9.330097961425782,1.5022760009765626,-0.13896529376506805,-0.7100008726119995,0.09290929138660431
1778807389.5915213,-1.6124468994140626,-9.301956481933594,1.2284953308105468,-0.11753720790147781,-0.7764461040496826,0.12402410805225372
1778807389.6112363,-1.4932946777343752,-9.495953063964844,0.991388397216797,-0.07126472890377045,-0.82429438829422,0.16271035373210907
1778807389.6319482,-1.5097604370117188,-9.690398712158204,0.986598358154297,-0.05075359717011452,-0.8587653636932373,0.17092813551425934
1778807389.6531491,-1.4209950256347657,-9.847721557617188,1.0786569213867188,-0.07297062128782272,-0.9324040412902832,0.1559920310974121
1778807389.6934469,-0.9313632202148437,-9.803413696289063,1.026415557861328,-0.042679738253355026,-0.9344988465309143,0.3124975562095642
1778807389.7157612,-1.2329859924316406,-9.585167541503907,1.670226745605469,-0.03804454952478409,-1.0127567052841187,0.34465107321739197
1778807389.7359478,-1.811532897949219,-10.213860168457032,2.2082080078125,-0.06484052538871765,-1.1367559432983398,0.2353857308626175
1778807389.7570004,-1.9989431762695313,-11.50612289428711,1.5257771301269532,-0.5515449643135071,-1.0847439765930176,0.16921019554138184
1778807389.778689,-1.60705810546875,-13.074112243652344,-0.7015910339355469,-0.8004814982414246,-1.019513726234436,0.029818080365657806
1778807389.8003173,-1.2037966918945313,-13.320649566650392,-3.1668145751953127,-0.5527098178863525,-0.6858426332473755,0.04099002107977867
1778807389.8211474,-2.113155670166016,-11.114686889648437,-1.658401336669922,-0.14716583490371704,-0.4791780114173889,-0.012988226488232613
1778807389.842835,-2.535876617431641,-8.728498992919922,1.3380674743652345,-0.07582761347293854,-0.524652361869812,-0.08740349113941193
1778807389.870863,-2.3439756774902345,-6.922354888916016,2.248623962402344,-0.2786048352718353,-0.7979535460472107,-0.0872284471988678
1778807389.8928623,-1.1752061462402343,-7.137756958007813,-0.7207511901855469,-0.2188226282596588,-0.9154859781265259,0.06398658454418182
1778807389.91356,-1.3548326110839843,-8.262967071533204,-1.6762142944335938,-0.016233080998063087,-0.6802360415458679,0.19677475094795227
1778807389.93649,-2.143093414306641,-9.636211395263672,-1.7335450744628906,0.017011156305670738,-0.5348993539810181,0.12313845753669739
1778807389.9582446,-2.765948181152344,-10.470726013183594,-1.0744656372070314,-0.021038133651018143,-0.46553343534469604,-0.011459838598966599
1778807389.9801953,-2.977158966064453,-10.532547454833985,0.5668711853027344,-0.11460559070110321,-0.508998453617096,-0.11068151891231537
1778807390.0016322,-2.817441101074219,-9.955497436523437,0.5267546081542969,-0.20349888503551483,-0.5512776970863342,-0.09787869453430176
1778807390.0228624,-2.7042764282226566,-9.30509994506836,0.044008483886718755,-0.22055009007453918,-0.5662490725517273,-0.012875707820057869
1778807390.0430303,-2.5734484863281253,-8.977281646728516,-0.4153861999511719,-0.22212521731853485,-0.5635057091712952,0.12535829842090607
1778807390.0624673,-2.3429278564453124,-9.052126007080078,-0.9113049316406251,-0.06819863617420197,-0.5138866901397705,0.16642510890960693
1778807390.082883,-2.135908355712891,-9.288484497070312,-0.8771759033203126,0.11300177872180939,-0.4119124412536621,0.16706734895706177
1778807390.1052926,-2.2013223266601565,-9.406289520263673,0.006286926269531251,0.10754194855690002,-0.3846389353275299,0.11015356332063675
1778807390.1261249,-2.35669921875,-9.38413558959961,0.7212002563476563,-0.03362654149532318,-0.3787708282470703,0.06338532269001007
1778807390.1479135,-2.3513104248046877,-9.497899017333985,0.25701553344726563,-0.11377494782209396,-0.3923714756965637,0.03619181364774704
1778807390.1727085,-2.4206163024902345,-9.51631072998047,-0.05014572143554688,-0.07779604196548462,-0.34271660447120667,0.0653359666466713
1778807390.1939552,-2.711461486816406,-9.47364944458008,0.22842498779296877,-0.027037790045142174,-0.3339298963546753,0.062287405133247375
1778807390.2155116,-2.9572503662109377,-9.178912353515626,0.41149429321289066,-0.035927820950746536,-0.33808088302612305,0.04996795952320099
1778807390.2351356,-2.9327014160156253,-9.008865966796876,0.5430706787109375,-0.06159123778343201,-0.34369292855262756,0.045405663549900055
1778807390.2563264,-2.3920257568359378,-9.003028106689454,0.7397616577148438,-0.09043198823928833,-0.3800484240055084,0.057754237204790115
1778807390.2805073,-2.212698669433594,-9.069190521240234,0.6810836791992188,-0.0910511240363121,-0.39891889691352844,0.08392748981714249
1778807390.3011374,-2.342478790283203,-9.229058074951173,0.803529052734375,-0.07927379012107849,-0.4215773046016693,0.09339496493339539
1778807390.3217134,-2.760110321044922,-9.334888000488283,0.8402027893066407,-0.04927181452512741,-0.42886799573898315,0.001376128289848566
1778807390.343602,-2.848875732421875,-9.307794342041015,0.9237290954589844,-0.006577477324754,-0.45079174637794495,-0.11024269461631775
1778807390.3642004,-2.425106964111328,-9.221873016357423,1.0803034973144532,0.01817433536052704,-0.4337434470653534,-0.15724627673625946
1778807390.3905253,-2.2469773864746094,-9.131910095214844,1.344653778076172,0.0038618026301264763,-0.4346768260002136,-0.17251455783843994
1778807390.4141328,-2.465672607421875,-9.286538543701173,1.3588742065429689,-0.005475150421261787,-0.45575621724128723,-0.17868390679359436
1778807390.4348211,-2.5935067749023437,-9.638307037353517,1.28133544921875,0.02308005839586258,-0.46852949261665344,-0.17656011879444122
1778807390.4555311,-2.5735981750488284,-9.904902648925782,1.1234138488769532,0.06937459111213684,-0.45120224356651306,-0.1876312643289566
1778807390.480881,-2.4207659912109376,-9.669591979980469,1.4352154541015625,0.0683782547712326,-0.4505237936973572,-0.18433722853660583
1778807390.5016413,-2.306104431152344,-9.535321197509766,1.6592994689941407,-0.03322720155119896,-0.4578656554222107,-0.14922039210796356
1778807390.520882,-2.318977661132813,-9.538764038085938,1.565294952392578,-0.055188510566949844,-0.43157878518104553,-0.11568477749824524
1778807390.5404825,-2.3046075439453126,-9.613758087158203,1.431024169921875,-0.026661396026611328,-0.4250801205635071,-0.10244738310575485
1778807390.5612884,-2.4968078613281253,-9.85595443725586,1.3404624938964844,-0.04485074058175087,-0.4507012367248535,-0.08548105508089066
1778807390.5835154,-3.009042663574219,-10.596464538574219,0.9413923645019532,-0.24416828155517578,-0.42457592487335205,-0.13017545640468597
1778807390.603414,-3.2090267944335937,-11.354338531494141,-0.2728825378417969,-0.1492491364479065,-0.34661009907722473,-0.20543043315410614
1778807390.6269717,-2.8765681457519534,-11.220367126464843,-0.42840911865234377,0.030474592000246048,-0.3036322295665741,-0.23493432998657227
1778807390.6474998,-2.55069580078125,-10.317145385742188,0.44876678466796877,-0.06204637140035629,-0.40008971095085144,-0.2162598818540573
1778807390.6686666,-2.3478675842285157,-9.287736053466798,0.11241622924804688,-0.06978747248649597,-0.44937801361083984,-0.13104084134101868
1778807390.694058,-2.5319847106933593,-8.049061889648438,0.14385086059570312,0.0015616314485669136,-0.4887601137161255,-0.07906542718410492
1778807390.7145412,-1.9508930969238283,-7.719297637939453,0.16660354614257813,-0.03422011435031891,-0.5227122902870178,-0.036626480519771576
1778807390.735221,-1.272653503417969,-8.158634033203125,0.00987945556640625,-0.07587262243032455,-0.5689525008201599,0.06800302863121033
1778807390.755497,-1.1440708923339844,-9.047485656738282,-0.05134323120117188,-0.045584265142679214,-0.6525518298149109,0.15493746101856232
1778807390.7767842,-1.471739501953125,-9.946815490722656,0.07694000244140625,-0.018004924058914185,-0.7670685648918152,0.15253613889217377
1778807390.7971988,-1.5934364318847658,-10.856473846435547,0.20567230224609376,-0.01807399094104767,-0.9199444651603699,0.05708404630422592
1778807390.8164866,-1.3392649841308595,-11.779005432128907,0.004041595458984375,-0.12229595333337784,-1.057637095451355,-0.07438874989748001
1778807390.8372848,-0.9842033386230469,-11.606564025878907,-0.5147795104980469,-0.26004916429519653,-1.0657548904418945,-0.11796236038208008
1778807390.8584034,-1.2527449035644531,-10.308313751220703,-0.920735321044922,-0.24481427669525146,-0.9931513071060181,-0.1146288812160492
1778807390.8783019,-1.6822018432617187,-9.016200714111328,-0.3695814514160156,-0.057066481560468674,-0.9382549524307251,-0.10091588646173477
1778807390.9229352,-1.8517991638183595,-8.120762786865235,0.5960604858398438,-0.11162484437227249,-1.0305849313735962,-0.08508990705013275
1778807390.9535007,-1.6889378356933595,-9.655221862792969,0.4746629333496094,-0.24129658937454224,-1.2377734184265137,0.1531103551387787
1778807390.9754834,-1.9690054321289063,-10.209519195556641,0.5255570983886719,-0.19808082282543182,-1.2667129039764404,0.14710727334022522
1778807390.9994009,-1.981728973388672,-10.12898666381836,0.70174072265625,-0.2028323858976364,-1.341439962387085,0.04928463324904442
1778807391.0203984,-1.5679893493652344,-9.778715057373047,0.7479945373535156,-0.21298351883888245,-1.4034456014633179,0.031505994498729706
1778807391.0411887,-0.9976753234863281,-9.524094543457032,0.6489006042480469,-0.21644939482212067,-1.3868390321731567,0.09333369880914688
1778807391.0625482,-1.3802796936035158,-9.442963256835938,0.6072871398925782,-0.1851082146167755,-1.3725439310073853,0.11934731900691986
1778807391.0832453,-1.7709672546386719,-9.477691040039064,0.841849365234375,-0.1590597778558731,-1.3620420694351196,0.09567023068666458
1778807391.106387,-1.7369879150390626,-9.468410339355469,1.1053015136718751,-0.17103669047355652,-1.3943136930465698,0.06560515612363815
1778807391.1263955,-1.3570779418945313,-9.476792907714843,1.2284953308105468,-0.20320504903793335,-1.462281584739685,0.13708873093128204
1778807391.1462305,-1.3566288757324219,-9.551188201904298,1.2467573547363282,-0.1944972574710846,-1.4797496795654297,0.2031790018081665
1778807391.1674442,-1.804647216796875,-9.572144622802735,1.1123368835449219,-0.15009789168834686,-1.4802920818328857,0.2121536135673523
1778807391.1894898,-2.2903871154785156,-9.681716766357422,0.978365478515625,-0.08188514411449432,-1.4729241132736206,0.15253695845603943
1778807391.2105358,-2.108964385986328,-9.54505096435547,1.1937675476074219,-0.055132318288087845,-1.5461225509643555,0.09005118906497955
1778807391.23051,-0.9174421691894532,-9.51825668334961,1.4015354919433594,-0.08035946637392044,-1.5860995054244995,0.14632625877857208
1778807391.2515516,-1.2325369262695314,-9.665400695800782,1.2347822570800782,-0.09413702040910721,-1.605727195739746,0.22560271620750427
1778807391.272117,-1.8940113830566407,-9.947863311767579,0.944835205078125,-0.04964478313922882,-1.5938448905944824,0.24298037588596344
1778807391.29387,-1.9154168701171876,-10.013876037597656,1.0184820556640626,-0.0015273243188858032,-1.6232986450195312,0.21917091310024261
1778807391.3145938,-1.4078224182128907,-9.831405487060547,1.3085787963867188,-0.0051988037303090096,-1.7266769409179688,0.23943322896957397
1778807391.3351247,-1.7224681091308596,-10.135123901367187,1.5245796203613282,0.008822740986943245,-1.7972248792648315,0.18252916634082794
1778807391.356201,-2.451152801513672,-11.05346420288086,1.1018586730957032,-0.4502462148666382,-1.7674140930175781,0.11530034244060516
1778807391.3766537,-2.485581207275391,-11.75280990600586,-1.1440708923339844,-0.5168330669403076,-1.700702428817749,0.008413709700107574
1778807391.397704,-1.4349160766601563,-11.817325744628906,-2.6768833923339845,-0.10382821410894394,-1.3663904666900635,0.08484695106744766
1778807391.4189777,-1.7712666320800783,-9.28070068359375,0.4087998962402344,-0.04315594956278801,-1.3556714057922363,0.11651817709207535
1778807391.439676,-1.9032920837402345,-8.118816833496094,1.6226257324218751,-0.33432695269584656,-1.500339388847351,0.15408743917942047
1778807391.460808,-1.7887802124023438,-7.997568969726563,0.42002655029296876,-0.46611127257347107,-1.5690245628356934,0.187008336186409
1778807391.4829662,-1.6374449157714845,-8.59662322998047,-1.0111473083496094,-0.3256666362285614,-1.58955979347229,0.16848084330558777
1778807391.5053308,-1.4721885681152345,-9.325457611083985,-1.4623091125488281,-0.15782283246517181,-1.537198781967163,0.139531210064888
1778807391.5257983,-1.3365705871582032,-9.902058563232423,-0.9693841552734376,-0.09610003978013992,-1.4464386701583862,0.18412311375141144
1778807391.5479937,-1.9333795166015626,-10.111922149658204,-0.05583389282226563,-0.10680168122053146,-1.4559659957885742,0.17923983931541443
1778807391.5706704,-2.8430378723144534,-9.722881164550781,1.7844392395019533,-0.17064951360225677,-1.534602403640747,0.18560627102851868
1778807391.5926363,-3.355122985839844,-9.367969207763672,1.9898121643066407,-0.30493491888046265,-1.6566683053970337,0.2226456105709076
1778807391.6136212,-3.490591278076172,-9.50628158569336,1.1752061462402343,-0.4699728786945343,-1.7815842628479004,0.2879382371902466
1778807391.6361685,-3.234324188232422,-9.719737701416015,0.08427474975585938,-0.45014864206314087,-1.7544571161270142,0.30893638730049133
1778807391.6570668,-2.9545559692382812,-9.595496063232423,-0.6611750793457032,-0.28965574502944946,-1.6490463018417358,0.26078346371650696
1778807391.6770391,-2.475102996826172,-9.294771423339844,-0.3207829284667969,-0.14778058230876923,-1.522341012954712,0.20932705700397491
1778807391.696052,-1.9091299438476563,-8.90602981567383,0.7445516967773438,-0.1706436425447464,-1.4578496217727661,0.21316739916801453
1778807391.7180305,-1.6449293518066408,-8.901090087890626,1.1087443542480468,-0.244113028049469,-1.4304474592208862,0.22766642272472382
1778807391.7377744,-1.5718812561035158,-9.335037689208985,0.8270301818847656,-0.24210548400878906,-1.3617476224899292,0.2668265700340271
1778807391.7589073,-2.1046234130859376,-9.73096435546875,0.6822811889648438,-0.20869125425815582,-1.2853230237960815,0.262590229511261
1778807391.7804837,-2.489473114013672,-9.727970581054688,0.7270381164550782,-0.19563989341259003,-1.2319639921188354,0.17580553889274597
1778807391.8023772,-2.611619110107422,-9.412875823974609,1.0488688659667968,-0.18606525659561157,-1.158188819885254,0.061593227088451385
1778807391.8226502,-2.575394439697266,-9.057365112304687,1.4382092285156252,-0.2077866643667221,-1.1514774560928345,0.02771332859992981
1778807391.842526,-2.452050933837891,-8.992250518798828,1.573677520751953,-0.22369877994060516,-1.149296522140503,0.03820352256298065
1778807391.8626878,-2.600841522216797,-8.915909271240235,1.3525872802734376,-0.21508336067199707,-1.082466959953308,0.06841304153203964
