timestamp,AccX,AccY,AccZ,GyroX,GyroY,GyroZ
1778957118.0710838,0.16839981079101562,-0.17872833251953146,1.8203645324707032,0.03179207444190979,-0.002325868234038353,-0.02882106974720955
1778957118.0863392,0.16001724243164064,-0.19040405273437422,1.8302439880371095,0.02854355238378048,-0.01573861390352249,-0.028597630560398102
1778957118.1017678,0.18890716552734377,-0.21839584350585994,1.809437255859375,0.028907284140586853,-0.03239021077752113,-0.008746023289859295
1778957118.119379,0.16959732055664065,-0.30566436767578153,1.8435662841796876,0.014643923379480839,-0.019876549020409584,-0.0015232644509524107
1778957118.1360483,0.2333647155761719,-0.34338592529296896,1.8877244567871094,0.008262458257377148,-0.011214617639780045,-0.005344900768250227
1778957118.1519208,0.25162673950195313,-0.32063323974609403,1.9167640686035157,-0.005691985134035349,-0.0060846880078315735,-0.007842222228646278
1778957118.1691954,0.2597099304199219,-0.23276596069336009,1.9235000610351562,-0.0005489364266395569,-0.005760883912444115,-0.0035895637702196836
1778957118.1856596,0.1968406677246094,-0.22094055175781335,1.8294955444335939,0.009300783276557922,0.005373738240450621,-0.001088376622647047
1778957118.2023027,0.14025833129882814,-0.2189945983886723,1.8065931701660156,0.01466491911560297,0.025284741073846817,-0.0014197197742760181
1778957118.2166317,0.14564712524414064,-0.20312759399414126,1.7904267883300782,-0.0014261668547987938,0.024782199412584305,0.0016471766866743565
1778957118.2323196,0.18621276855468752,-0.22228775024414027,1.7396823120117189,-0.005013431888073683,0.027950948104262352,-0.002419660799205303
1778957118.2476814,0.1478924560546875,-0.23471191406249936,1.744622039794922,-0.002169308252632618,0.03523781895637512,-0.007795095443725586
1778957118.2621667,0.10253677368164063,-0.24848327636718714,1.7474661254882813,0.005564069375395775,0.03921351209282875,0.0007942356169223785
1778957118.2774336,0.11017089843750001,-0.24369323730468828,1.7562977600097658,0.013870513997972012,0.043079689145088196,-0.004509664140641689
1778957118.2934089,0.1669029235839844,-0.23620880126953203,1.8390756225585938,0.012825756333768368,0.029458951205015182,0.0040609207935631275
1778957118.3096917,0.2183958435058594,-0.25506958007812486,1.833387451171875,0.024050550535321236,0.008122751489281654,0.0029191370122134686
1778957118.324789,0.2621049499511719,-0.2636018371582036,1.7738113403320312,0.031113063916563988,0.0034726178273558617,-0.00042443303391337395
1778957118.3403971,0.18576370239257814,-0.26899063110351484,1.7907261657714844,0.026870008558034897,-0.00041063036769628525,0.0023372750729322433
1778957118.356176,0.1694476318359375,-0.2285746765136718,1.7821939086914063,0.028285477310419083,-0.017905468121170998,0.008565077558159828
1778957118.3727238,0.20312759399414063,-0.2679428100585941,1.7324972534179688,0.027374280616641045,-0.0008807606063783169,-0.008717852644622326
1778957118.3903544,0.12304412841796876,-0.2311193847656252,1.7759069824218752,0.005998476408421993,0.013402220793068409,-0.01235986314713955
1778957118.4073763,0.017214202880859376,-0.16884887695312578,1.8461109924316408,-0.0036923191510140896,0.015666166320443153,-0.00225136149674654
1778957118.425076,0.23246658325195313,-0.14325210571289126,1.8022521972656251,0.013762122951447964,-0.016025178134441376,0.02030886709690094
1778957118.441886,0.3010240173339844,-0.3035687255859383,1.7224681091308596,0.03822442889213562,0.0011714911088347435,-0.011733796447515488
1778957118.458463,0.15223342895507813,-0.3005749511718747,1.8004559326171876,0.01893281564116478,0.018011385574936867,-0.012789109721779823
1778957118.4730084,-0.034877471923828125,-0.19893630981445298,1.8802400207519532,0.003220432437956333,0.010780904442071915,-0.0024451259523630142
1778957118.4888968,-0.009580078125,-0.18187179565429723,1.841470642089844,0.004684878513216972,-0.010046703740954399,0.012244140729308128
1778957118.5039372,0.3710783386230469,-0.25252487182617145,1.6542100524902346,0.02218369022011757,-0.015164222568273544,-0.003302418626844883
1778957118.5191548,0.4022135925292969,-0.2788700866699223,1.655108184814453,0.024553950875997543,-0.00701540382578969,-0.022798601537942886
1778957118.5340588,0.08786727905273438,-0.20851638793945249,1.8107844543457032,0.011910059489309788,-0.008565629832446575,-0.020250754430890083
1778957118.5473115,-0.015118560791015626,-0.18860778808593714,1.8411712646484375,-0.0073788221925497055,-0.02331148460507393,0.003459479659795761
1778957118.5605757,-0.06750961303710938,-0.1821711730957034,1.8562898254394533,-0.009576229378581047,-0.020920168608427048,0.013080674223601818
1778957118.5756729,0.00508941650390625,-0.1974394226074221,1.8175204467773438,-0.021350596100091934,-0.027711760252714157,0.021054711192846298
1778957118.592469,0.19145187377929687,-0.26734405517578175,1.6395405578613282,-0.0236082524061203,-0.03761006519198418,0.00401703454554081
1778957118.635222,0.228724365234375,-0.22408401489257734,1.6863931274414063,-0.050492286682128906,-0.0620247945189476,-0.039203889667987823
1778957118.649656,0.06676116943359375,-0.18785934448242259,1.7196240234375,-0.04501841962337494,-0.06085620075464249,-0.05121660977602005
1778957118.6652954,0.07888595581054687,-0.13801300048828047,1.7760566711425783,-0.011519785039126873,-0.04937351122498512,-0.046055037528276443
1778957118.6830533,0.20058288574218752,-0.08652008056640703,1.8317408752441406,0.032368145883083344,-0.05508990213274956,-0.017266809940338135
1778957118.6982188,0.24818389892578127,-0.12349319458007812,1.8088385009765626,0.028537016361951828,-0.06397727131843567,-0.01096566766500473
1778957118.7140577,0.3150947570800781,-0.17857864379882749,1.7988093566894532,0.0014566639438271523,-0.06550086289644241,-0.018829183652997017
1778957118.729352,0.3212319946289063,-0.20477416992187436,1.7242643737792969,-0.028629332780838013,-0.07634392380714417,-0.015131117776036263
1778957118.7451138,0.4125421142578125,-0.2544708251953125,1.6642391967773438,-0.017866048961877823,-0.0876699686050415,0.007341925520449877
1778957118.7605343,0.30371841430664065,-0.35176849365234375,1.7321978759765626,-0.00434387382119894,-0.07855911552906036,0.010591050609946251
1778957118.775666,0.223934326171875,-0.3606001281738287,1.8470091247558595,0.012776694260537624,-0.05593090131878853,0.025142459198832512
1778957118.793826,0.25656646728515625,-0.3391946411132807,1.941163330078125,0.028146330267190933,-0.042377810925245285,0.02548680640757084
1778957118.8105602,0.29114456176757814,-0.324076080322266,1.9004479980468751,0.07025642693042755,0.0026104431599378586,0.023311477154493332
1778957118.8610735,0.3841012573242188,-0.36404296875000064,1.7904267883300782,0.1199711486697197,0.09125485271215439,0.028586484491825104
1778957118.875987,0.39173538208007813,-0.3468287658691409,1.7431251525878908,0.16331908106803894,0.09382874518632889,0.03241753950715065
1778957118.890719,0.3192860412597656,-0.3373983764648436,1.691781921386719,0.1872667670249939,0.08826380223035812,0.03194243088364601
1778957118.907271,0.2213896179199219,-0.3782633972167968,1.6929794311523438,0.23568758368492126,0.07573318481445312,0.015376699157059193
1778957118.9215505,0.1285826110839844,-0.31389724731445234,1.7730628967285158,0.2434936910867691,0.06099911779165268,0.009179094806313515
1778957118.93817,0.13995895385742188,-0.288749542236328,1.8309924316406252,0.22612179815769196,0.02027832344174385,0.004217832814902067
1778957118.9552915,0.2716850280761719,-0.38035903930664006,1.8558407592773438,0.22295983135700226,-0.0048593562096357346,0.008534740656614304
1778957118.9704514,0.4153861999511719,-0.572259979248047,1.6875906372070313,0.2364189177751541,-0.00016766507178544998,0.00645374646410346
1778957118.9879107,0.36853363037109377,-0.5760021972656251,1.6408877563476563,0.26752057671546936,0.02052939310669899,0.01651599258184433
1778957119.0057073,0.30072463989257814,-0.49591873168945355,1.6810043334960938,0.2630802392959595,0.038172945380210876,0.02582562156021595
1778957119.2666929,0.16735198974609375,-0.2532733154296878,1.7694703674316408,0.2473546415567398,0.03732290118932724,0.01807531714439392
1778957119.2832813,0.13576766967773438,-0.22797592163085945,1.0306068420410157,0.42846566438674927,0.0702143982052803,-0.005153020843863487
1778957119.2986455,0.2890489196777344,-0.4888833618164057,0.6409671020507813,0.40430983901023865,0.08864983171224594,-0.030085088685154915
1778957119.3148408,0.37661682128906254,-0.4941224670410165,0.4090992736816406,0.4654310643672943,0.14898043870925903,-0.032089993357658386
1778957119.3311164,0.85502197265625,-0.1212478637695309,0.17528549194335938,0.5514116883277893,0.12637706100940704,0.005585368722677231
1778957119.3455675,0.9684860229492188,0.07649093627929737,0.28306137084960936,0.561979353427887,0.11975537985563278,-0.012502022087574005
1778957119.3620267,0.8475375366210938,0.07140151977539055,0.3703298950195313,0.5680729746818542,0.14686232805252075,-0.07303983718156815
1778957119.3795455,0.46643005371093754,0.4477189636230463,0.4577481079101563,0.5879755616188049,0.16362720727920532,-0.0726132020354271
1778957119.3941174,0.33185989379882813,0.7322772216796878,0.42870849609375,0.6617817878723145,0.19605247676372528,0.0017039403319358826
1778957119.4100177,0.08891510009765625,1.192120971679687,0.49367340087890627,0.7411677241325378,0.2383660227060318,0.10521190613508224
1778957119.4412303,0.1095721435546875,1.5539186096191404,0.4409829711914063,0.7762799263000488,0.24962054193019867,0.14559313654899597
1778957119.4561098,0.10163864135742189,1.3885125732421884,0.004939727783203125,0.7797370553016663,0.2616459131240845,0.11027752608060837
1778957119.4719322,0.03981719970703125,1.29615463256836,-0.32168106079101566,0.769182026386261,0.2330152839422226,0.10768336802721024
1778957119.4873798,0.23905288696289065,1.352587280273438,-0.7770341491699219,0.7623488903045654,0.19733744859695435,0.1204465702176094
1778957119.5028887,0.2517764282226563,1.2515473937988286,-1.0581495666503906,0.7832210063934326,0.1782895028591156,0.08300595730543137
1778957119.5172446,0.389190673828125,0.9678872680664057,-1.4911990356445313,0.8118894696235657,0.18744896352291107,0.050560034811496735
1778957119.5325155,0.5760021972656251,0.8446934509277337,-1.5045213317871096,0.7953432202339172,0.18201863765716553,0.026974093168973923
1778957119.5564368,0.6147715759277345,0.3959266662597649,-1.5036231994628908,0.7415561079978943,0.17369945347309113,0.034505512565374374
1778957119.5732324,0.4493655395507813,0.30805938720703097,-1.5774197387695312,0.48203080892562866,0.10746751725673676,0.05255882814526558
1778957119.5898378,0.46478347778320317,1.0704240417480477,-1.648970947265625,0.29006847739219666,-0.033304933458566666,-0.0032155534718185663
1778957119.608075,0.4746629333496094,1.9028430175781246,-2.026036834716797,0.2948722839355469,-0.08014647662639618,-0.021448086947202682
1778957119.623193,0.18486557006835938,1.9252963256835933,-2.4158262634277343,0.4703313112258911,-0.005813072435557842,-0.01357593759894371
1778957119.6390963,0.18172210693359375,1.6208294677734383,-2.4975563049316407,0.575395405292511,0.12308542430400848,-0.008928592316806316
1778957119.6543114,0.79754150390625,0.7855664062500001,-2.2941293334960937,0.5599324703216553,0.16844043135643005,-0.002400153549388051
1778957119.6699874,1.1846365356445314,0.4164340209960944,-2.0372634887695313,0.32786494493484497,0.15301546454429626,0.013647487387061119
1778957119.6867182,1.4950909423828125,-0.23486160278320334,-1.8687139892578126,0.22883079946041107,0.13079963624477386,0.013662934303283691
1778957119.701745,1.2638218688964844,-0.45131149291992223,-1.9305354309082032,0.1752307415008545,0.1515575349330902,-0.019607068970799446
1778957119.7175415,0.6846762084960938,-0.19669097900390575,-1.813179473876953,0.14123399555683136,0.16721227765083313,-0.027826547622680664
1778957119.7336771,0.4834945678710938,0.3351530456542964,-1.818867645263672,0.06142878532409668,0.17147089540958405,-0.04314081370830536
1778957119.7482188,0.4640350341796875,0.5375321960449213,-1.918260955810547,0.0369204580783844,0.21003827452659607,-0.0696081668138504
1778957119.763105,0.29234207153320313,0.8090675354003913,-2.3082000732421877,0.042132265865802765,0.23112758994102478,-0.07085905224084854
1778957119.779955,0.37901184082031253,0.8321195983886724,-2.289339294433594,0.012984624132514,0.21281014382839203,-0.0039036970119923353
1778957119.7962441,0.76880126953125,0.7255412292480461,-2.182162170410156,-0.008865227922797203,0.18698517978191376,0.03302135691046715
1778957119.811868,0.7575746154785157,0.6132746887207023,-2.1418959045410157,-0.05377453565597534,0.13734790682792664,0.027276763692498207
1778957119.8263094,0.5084925842285156,0.5234614562988273,-2.1568647766113282,-0.08077792078256607,0.12017824500799179,-0.012169444933533669
1778957119.8432512,0.29144393920898437,0.620010681152344,-2.282154235839844,-0.1461666226387024,0.06484320014715195,-0.07111258059740067
1778957119.8587632,0.19414627075195315,0.6298901367187497,-2.39262451171875,-0.15428467094898224,0.038719262927770615,-0.07851957529783249
1778957119.8752656,0.4263134765625,0.6032455444335945,-2.472258911132813,-0.11313260346651077,0.06767159700393677,-0.0597660169005394
1778957119.8922937,0.5830375671386719,0.5812413024902341,-2.31837890625,-0.17037376761436462,0.08417343348264694,-0.019651690497994423
1778957119.9086637,0.7839198303222656,0.32856674194335866,-2.0793260192871097,-0.30969420075416565,0.06066112965345383,0.021463677287101746
1778957119.9253278,0.7182064819335938,0.21630020141601491,-1.991309051513672,-0.32239001989364624,0.06263266503810883,0.029164206236600876
1778957119.9409432,0.5854325866699219,0.2615061950683586,-1.9498452758789064,-0.3081042170524597,0.08496040105819702,0.01915142685174942
1778957119.957684,0.5662724304199219,0.3905378723144537,-1.9417620849609376,-0.339072048664093,0.06904874742031097,0.0038500013761222363
1778957119.974086,0.5454656982421875,0.43185195922851527,-2.0151095581054688,-0.3592851758003235,0.06669459491968155,-0.008143818937242031
1778957121.1426444,0.884959716796875,-0.23501129150390554,1.1985575866699218,0.2270258069038391,0.6382830739021301,0.13607259094715118
1778957121.161897,0.9066645812988282,-0.21405487060546946,1.2518467712402344,0.2567913234233856,0.6474695205688477,0.15456227958202362
1778957121.180186,0.9740245056152345,-0.2869532775878909,1.2457095336914064,0.2425004541873932,0.6531182527542114,0.17686662077903748
1778957121.1953557,0.9383985900878907,-0.2956352233886719,1.22625,0.2173444926738739,0.6540021896362305,0.18335753679275513
1778957121.2128172,0.9791139221191407,-0.27542724609375036,1.1852352905273438,0.17776931822299957,0.6562999486923218,0.21624627709388733
1778957121.228989,0.8963360595703126,-0.1727407836914061,1.1838880920410157,0.1677994281053543,0.662132740020752,0.23985466361045837
1778957121.2450469,0.9011260986328126,-0.24519012451171918,1.2708572387695314,0.1649070382118225,0.6678386330604553,0.24381084740161896
1778957121.262211,0.920885009765625,-0.25686584472656193,1.2975018310546875,0.16182968020439148,0.673140287399292,0.253391295671463
1778957121.2767985,0.9991722106933594,-0.3234773254394536,1.2939093017578125,0.15299676358699799,0.6711413264274597,0.25744837522506714
1778957121.2917285,0.9907896423339845,-0.3631448364257821,1.2184661865234376,0.1450476497411728,0.6763776540756226,0.26067209243774414
1778957121.3204074,1.174457702636719,-0.3035687255859383,1.2255015563964844,0.15028436481952667,0.6195787787437439,0.32095351815223694
1778957121.335706,1.370849304199219,-0.3631448364257821,1.2543914794921875,0.1434277892112732,0.5991659164428711,0.3431781232357025
1778957121.3532915,1.4096186828613282,-0.3861968994140632,1.2139755249023438,0.09161970019340515,0.5539872050285339,0.3724151849746704
1778957121.3671877,1.5221846008300781,-0.39562728881835874,1.11847412109375,0.07721243798732758,0.5398304462432861,0.3756278157234192
1778957121.385399,1.4900015258789063,-0.35072067260742124,1.1204200744628907,0.043352458626031876,0.5360782146453857,0.3644714057445526
1778957121.4010792,1.4388079833984375,-0.3318598937988284,1.1030561828613281,0.07995882630348206,0.5538598299026489,0.35622116923332214
1778957121.4184265,1.5467335510253908,-0.3610491943359371,0.9491761779785157,0.16293196380138397,0.5774939656257629,0.3924304246902466
1778957121.437361,1.7896783447265625,-0.23755599975585895,0.7322772216796876,0.18316559493541718,0.5929631590843201,0.41736507415771484
1778957121.4530685,1.924248504638672,-0.2953358459472657,0.8860075378417969,0.14599187672138214,0.6223938465118408,0.43864259123802185
1778957121.469526,1.8826350402832033,-0.16810043334960945,0.9126521301269531,0.06921148300170898,0.6050892472267151,0.39305591583251953
1778957121.487339,1.77949951171875,0.5987548828125,0.8229885864257813,0.06736771017313004,0.5761844515800476,0.33670079708099365
1778957121.5031233,1.3245954895019532,1.405577087402344,-0.3141966247558594,0.1273249238729477,0.49510353803634644,0.24730825424194336
1778957121.5196002,1.2066407775878907,1.4814692687988273,-1.0463241577148439,0.23717013001441956,0.504654586315155,0.27241310477256775
1778957121.535307,1.3427078247070314,1.345252532958984,-0.8734336853027345,0.2646470367908478,0.5207821726799011,0.29603296518325806
1778957121.5510423,1.5772700500488281,1.0940748596191412,0.10448272705078125,0.19263705611228943,0.5322594046592712,0.30428194999694824
1778957121.5660312,2.059866485595703,-0.35610946655273423,1.6136444091796875,0.1749493032693863,0.5954238176345825,0.30431506037712097
1778957121.5813413,2.106120300292969,-1.7251625061035156,1.469194793701172,0.22936132550239563,0.6744270920753479,0.3232611417770386
1778957121.5961215,1.823657684326172,-1.7835411071777347,1.0795550537109375,0.3042600750923157,0.7736670970916748,0.33756712079048157
1778957121.6611927,1.1240126037597657,-0.8979826354980478,0.028889923095703127,0.4066776633262634,0.9725176095962524,0.3227827548980713
1778957121.718686,1.4066249084472657,1.084644470214844,0.5692662048339844,0.08165960013866425,0.84708571434021,-0.07900603860616684
1778957121.8007293,2.4614813232421877,-0.8144563293457026,1.2798385620117188,0.04784993454813957,1.2649754285812378,-0.0017635640688240528
1778957121.8592682,2.0510348510742187,-0.9969268798828121,0.8147557067871094,0.14778724312782288,1.029402256011963,0.07100710272789001
1778957121.8896105,1.9751426696777346,-0.9057664489746102,0.6072871398925782,0.26818013191223145,0.986874520778656,-0.04181336611509323
1778957121.9102259,1.9902612304687501,-0.8512797546386714,0.9951306152343751,0.3111829459667206,0.8979155421257019,-0.08742164820432663
1778957121.928017,2.068997497558594,-0.8408015441894534,1.1638298034667969,0.3054736256599426,0.8647777438163757,-0.0778694748878479
1778957121.9548292,2.093396759033203,-0.9921368408203133,1.2754975891113283,0.2061038762331009,0.8121289014816284,-0.10779328644275665
1778957121.9904919,2.3201751708984375,-0.5409750366210933,1.119521942138672,0.1849253922700882,0.788735032081604,-0.16027262806892395
1778957122.0149457,2.3869363403320314,-0.6237528991699222,0.98914306640625,0.21389953792095184,0.6607906818389893,-0.17239637672901154
1778957122.0335884,2.352657623291016,-0.7985893249511715,1.063238983154297,0.1964648813009262,0.6257333755493164,-0.17434288561344147
1778957122.0523753,2.4279510498046877,-0.7107220458984376,1.3533357238769532,0.1237485334277153,0.5485671162605286,-0.16557104885578156
1778957122.0662806,2.462828521728516,-0.7355703735351558,1.457369384765625,0.05532361567020416,0.5074712038040161,-0.21704627573490143
1778957122.0829337,2.5938061523437503,-0.5610333251953126,1.5606546020507814,0.036051053553819656,0.49520498514175415,-0.23721648752689362
1778957122.098373,2.489024047851563,-0.2601589965820317,1.4697935485839844,0.03836139664053917,0.4669201672077179,-0.21236753463745117
1778957122.114172,2.3671774291992187,-0.27692413330078125,1.37713623046875,0.06522329896688461,0.47553402185440063,-0.194374680519104
1778957122.1297176,2.142943725585938,-0.46897476196289034,1.0626402282714844,0.0766647681593895,0.5000028610229492,-0.1623842567205429
1778957122.1472054,1.9791842651367189,-0.5791456604003908,0.9744735717773438,0.07638134807348251,0.5519907474517822,-0.11165900528430939
1778957122.1616185,1.7759069824218752,-0.3960763549804689,1.1551478576660157,-0.016962621361017227,0.550054132938385,-0.057920586317777634
1778957122.1743486,1.6232244873046875,0.07783813476562429,1.3612692260742187,-0.05046707019209862,0.555481493473053,-0.02945762127637863
1778957122.189503,1.33881591796875,0.7607180786132819,0.7915539550781251,-0.029383622109889984,0.597028374671936,-0.019786352291703224
1778957122.2073944,1.518292694091797,0.27437942504882784,0.056282958984375006,0.04312659054994583,0.6893322467803955,-0.03064887970685959
1778957122.2243545,1.7058526611328126,-0.5150788879394526,-0.36134857177734375,-0.04549608379602432,0.5374330878257751,0.022002389654517174
1778957122.240489,1.6832496643066408,-0.45909530639648466,0.41733215332031254,-0.11301374435424805,0.4751402735710144,0.03883698582649231
1778957122.2562044,1.5711328125000001,-0.3279679870605463,0.4734654235839844,-0.13917627930641174,0.38421106338500977,-0.026354163885116577
1778957122.2728848,1.7055532836914062,0.7530839538574217,0.2731819152832031,0.05606537684798241,0.37739327549934387,-0.024763919413089752
1778957122.2884834,1.6874409484863282,2.10956314086914,-0.3745211791992188,0.14896787703037262,0.38899853825569153,0.015570719726383686
1778957122.3066945,1.2217593383789063,1.9902612304687501,-1.0469229125976562,0.04379822313785553,0.3879717290401459,0.05341014266014099
1778957122.3210604,1.001267852783203,1.6408877563476558,-1.017733612060547,-0.3001944422721863,0.3235633373260498,-0.014037034474313259
1778957122.337825,1.242865447998047,0.4586462402343745,-0.3852987670898438,-0.3987411558628082,0.3168904781341553,-0.049897998571395874
1778957122.354627,1.4115646362304688,-0.25342300415039,0.15238311767578125,-0.36344966292381287,0.34882354736328125,-0.04259421303868294
1778957122.3713815,1.374591522216797,-1.1524534606933603,1.2814851379394532,-0.29847678542137146,0.36695194244384766,-0.00861387699842453
1778957122.3874092,0.865799560546875,-1.537303161621093,1.5525714111328126,-0.16663341224193573,0.45694616436958313,0.014657580293715
1778957122.4023423,0.508941650390625,-1.4217434692382813,1.3825250244140626,-0.06323113292455673,0.5738032460212708,0.0012871809303760529
1778957122.419397,0.10208770751953125,-0.5111869812011722,0.880019989013672,-0.033312615007162094,0.6363824605941772,-0.0019678801763802767
1778957122.4350772,-0.028291168212890627,-0.10388397216796896,0.5180726623535157,0.003998107276856899,0.7697023153305054,-0.04965611547231674
1778957122.4503832,0.06915618896484375,0.12304412841796797,-0.33784744262695315,-0.02373327687382698,0.782195508480072,-0.04975702613592148
1778957122.466168,0.33829650878906253,0.23635848999023423,-0.2442919921875,-0.07304783165454865,0.7133013606071472,-0.03460603579878807
1778957122.4812384,0.31030471801757814,0.3210823059082024,0.035176849365234374,-0.10459737479686737,0.6050417423248291,-0.030882636085152626
1778957122.4956338,0.0748443603515625,-0.029788055419921022,0.6665638732910156,-0.06630121171474457,0.5840722918510437,-0.04060468450188637
1778957122.513321,0.08472381591796875,-0.3281176757812503,0.9217831420898438,0.038572221994400024,0.5786737203598022,-0.034275226294994354
1778957122.5279293,0.24474105834960938,-0.7756869506835944,1.2555889892578125,0.0693783387541771,0.5839781761169434,-0.01675482466816902
1778957122.5436172,0.26225463867187504,-0.8985813903808602,1.2750485229492188,0.1096353605389595,0.5954238772392273,0.01839275099337101
1778957122.5598068,0.2423460388183594,-0.9303153991699222,1.187779998779297,0.12517687678337097,0.6087994575500488,0.01948927715420723
1778957122.575896,0.4496649169921875,-0.7048841857910162,1.2579840087890626,0.11944597214460373,0.6221415996551514,0.001235653180629015
1778957122.592028,0.5704637145996094,-0.5718109130859368,1.2675640869140625,0.09434487670660019,0.5943523049354553,0.007563856430351734
1778957122.6101904,0.8074209594726562,-0.33979339599609304,1.2364288330078126,0.09118609875440598,0.5858443379402161,0.02617056667804718
1778957122.6277304,0.6282435607910156,-0.2219883728027341,0.9696835327148438,0.14219874143600464,0.5880235433578491,0.049274079501628876
1778957122.6432827,0.5993536376953126,-0.16091537475585938,0.9524693298339845,0.1547396183013916,0.5695140957832336,0.07330090552568436
1778957122.6598022,0.5418731689453126,-0.12963043212890568,1.1561956787109375,0.1368289589881897,0.5649799704551697,0.06967117637395859
1778957122.6732705,0.5849835205078125,-0.3073109436035164,1.5413447570800782,0.10245219618082047,0.56263667345047,0.012746935710310936
1778957122.6897323,0.7741900634765625,-0.28755203247070327,1.687141571044922,0.08308716118335724,0.5624521970748901,0.01888921484351158
1778957122.7050102,0.6797364807128906,-0.39263351440429695,1.5703843688964845,0.09708286821842194,0.5716342329978943,0.014793273992836475
1778957122.721359,0.5857319641113281,-0.4912783813476569,1.5147001647949219,0.13368868827819824,0.5754817128181458,0.01043151505291462
1778957122.7373786,0.5818400573730469,-0.5538482666015625,1.5631993103027344,0.12299546599388123,0.5644606351852417,0.017843253910541534
1778957122.7524865,0.6051914978027344,-0.6879693603515626,1.5599061584472658,0.08867958188056946,0.5362077951431274,0.024709338322281837
1778957122.7700365,0.6800358581542969,-0.9834548950195305,1.4165043640136719,0.06965722143650055,0.5473906993865967,-0.0033667096868157387
1778957122.7883685,0.15358062744140627,-1.1088940429687497,1.2311897277832031,0.041880130767822266,0.5626950263977051,-0.07585294544696808
1778957122.8057554,0.18276992797851563,-0.6429130554199212,1.1608360290527344,0.028317714110016823,0.5788545608520508,-0.05310395732522011
1778957122.8232687,0.1149609375,-0.009580078124999503,1.2481045532226562,0.008259627968072891,0.5963769555091858,0.0575735941529274
1778957122.8392682,0.085023193359375,0.15941848754882848,1.3236973571777344,0.0059073688462376595,0.6127671599388123,0.08294457942247391
1778957122.8556397,0.23486160278320314,0.3125500488281254,1.390308837890625,0.03479279205203056,0.6349155902862549,0.07014097273349762
1778957122.873515,0.5266049194335938,0.5788462829589847,1.7333953857421875,0.11752969026565552,0.6915683746337891,0.10660332441329956
1778957122.9212823,0.5270539855957032,1.2922627258300778,1.8784437561035157,0.22237247228622437,0.970810055732727,-0.0786554142832756
1778957122.9366508,0.7238946533203126,0.06840774536132876,-0.47690826416015625,0.26627954840660095,1.017371416091919,-0.07414378225803375
1778957122.9804583,0.8244854736328125,1.0657836914062493,-0.5230123901367187,0.07918760180473328,0.8130924701690674,0.1102469265460968
1778957122.9968445,0.4495152282714844,2.386337585449219,0.9193881225585938,0.22502101957798004,0.7010048627853394,0.19922161102294922
1778957123.0183973,0.3983216857910156,0.539029083251954,0.8701405334472657,0.20134413242340088,0.8328901529312134,0.05681938678026199
1778957123.0351186,0.5179229736328125,-0.6664141845703124,1.1138337707519532,0.1771683394908905,0.9498879313468933,0.08495126664638519
1778957123.0501046,0.6857240295410156,-1.2142749023437496,1.1692185974121094,0.16649143397808075,0.9351564049720764,0.240135058760643
1778957123.0666137,1.1235635375976563,-1.972298583984375,0.6902146911621094,0.1664472222328186,0.8954931497573853,0.3125639855861664
1778957123.0825217,1.156644744873047,-1.858086090087891,0.13262420654296875,0.17987437546253204,0.8293476700782776,0.3476281762123108
1778957124.2167127,0.36658767700195316,-0.3101550292968742,0.62989013671875,0.11068327724933624,1.1496381759643555,0.08692915737628937
1778957124.2356532,0.31105316162109375,-0.05403762817382862,0.8743318176269532,0.04140213504433632,1.259939193725586,0.10520271956920624
1778957124.2507699,0.2740800476074219,0.038470001220703764,0.8246351623535156,0.02192642167210579,1.3749085664749146,0.19301848113536835
1778957124.2651517,0.14220428466796875,-0.1567240905761711,0.7060816955566407,0.03085855022072792,1.4071764945983887,0.22745411098003387
1778957124.2800734,-0.14624588012695314,-0.5575904846191406,0.5508544921875,0.1168573796749115,1.3470802307128906,0.17128071188926697
1778957124.2972043,0.7695497131347656,-0.8753796386718751,0.5276527404785156,0.15395575761795044,1.2522680759429932,0.15858115255832672
1778957124.313407,1.2563374328613282,-0.8113128662109368,0.6611750793457032,0.12453605979681015,1.162234902381897,0.08020325750112534
1778957124.3300354,1.06099365234375,-0.43604324340820355,0.9196875,0.06687961518764496,1.1793687343597412,-0.0007494776509702206
1778957124.3539095,0.5459147644042969,0.3632945251464843,0.9165440368652344,0.05558624118566513,1.2026926279067993,0.004545462783426046
1778957124.369978,0.2327659606933594,0.6789880371093755,0.46343627929687503,0.08381081372499466,1.2506800889968872,0.017535865306854248
1778957124.3937593,0.2871029663085938,0.43080413818359453,-0.035176849365234374,0.11192093789577484,1.2819325923919678,0.012399785220623016
1778957124.409305,0.6192622375488281,0.09280700683593679,-0.020806732177734377,0.12063677608966827,1.3072785139083862,-0.03154313564300537
1778957124.4267275,0.9165440368652344,-0.06556365966796918,0.2866539001464844,0.11460725963115692,1.31108558177948,-0.015764396637678146
1778957124.4431605,0.798589324951172,-0.46493316650390604,0.6149212646484375,0.11319471895694733,1.3854035139083862,0.020272431895136833
1778957124.4587305,0.6701564025878907,-0.5342390441894533,0.7963439941406251,0.09686563909053802,1.5557315349578857,0.014825116842985153
1778957124.4735014,1.0605445861816407,0.7466473388671879,0.3884422302246094,0.16681331396102905,1.6002017259597778,0.026571257039904594
1778957124.490024,1.6151412963867189,1.327738952636718,-0.7009922790527344,0.42919403314590454,1.5044057369232178,0.2064877599477768
1778957124.5084736,1.6399896240234375,1.2515473937988286,-1.9916084289550782,0.420841246843338,1.45618736743927,0.2130420058965683
1778957124.5227609,0.6855743408203125,1.3470487976074228,-1.1846365356445314,0.23607681691646576,1.5047129392623901,0.031552210450172424
1778957124.5383172,0.6489006042480469,1.6848962402343748,-0.8533753967285157,0.16339637339115143,1.6014472246170044,0.008187463507056236
1778957124.553015,0.9804611206054688,1.164129180908203,-0.6978488159179688,0.1557251363992691,1.6768407821655273,0.05197622627019882
1778957124.5669906,1.0355465698242188,0.5158273315429689,-0.689765625,0.2107875943183899,1.8515585660934448,0.131524458527565
1778957124.5814261,1.2585827636718752,-0.3567082214355466,-0.3746708679199219,0.2265274077653885,1.8889501094818115,0.17755119502544403
1778957124.5972414,1.432071990966797,-0.6969506835937498,-0.20686981201171875,0.2253657430410385,1.9389318227767944,0.2309747338294983
1778957124.6135173,1.7235159301757814,-1.4464421081542973,-0.6436614990234375,0.24439272284507751,1.9507120847702026,0.3000414967536926
1778957124.6305447,1.8973045349121094,-1.6211288452148445,-1.034798126220703,0.26871418952941895,1.8618661165237427,0.26480716466903687
1778957124.6455495,1.9178118896484375,-1.6423846435546867,-1.368753662109375,0.2555736303329468,1.7986868619918823,0.22270651161670685
1778957124.6625264,1.7474661254882813,-1.0467732238769525,-1.2027488708496095,0.21655593812465668,1.6862717866897583,0.17101776599884033
1778957124.6805458,1.6925303649902346,-0.7825726318359383,-1.085991668701172,0.14382463693618774,1.6254234313964844,0.13537035882472992
1778957124.6971676,1.4832655334472657,-0.3716770935058591,-0.73048095703125,0.15191371738910675,1.6553623676300049,0.08996053785085678
1778957124.7138467,1.6447796630859375,0.3332070922851571,-0.16301101684570313,0.17035451531410217,1.6716792583465576,0.08134041726589203
1778957124.730164,1.8709593200683594,0.6189628601074215,-0.021704864501953126,0.19325214624404907,1.6821092367172241,0.09027332067489624
1778957124.7460842,2.3405328369140626,0.7526348876953133,0.00868194580078125,0.2085767537355423,1.684255838394165,0.11261723190546036
1778957124.763197,2.419119415283203,0.1686991882324218,-0.3480262756347656,0.1951865255832672,1.7100458145141602,0.11205774545669556
1778957124.7781842,2.313139801025391,-0.2709365844726559,-0.4998106384277344,0.12918879091739655,1.726281762123108,0.10714095830917358
1778957124.794374,2.1345611572265626,-1.0041119384765622,-0.5279521179199219,0.09720529615879059,1.7240800857543945,0.1044306606054306
1778957124.811581,2.1671932983398436,-1.2633728027343754,-0.22153930664062502,0.07772236317396164,1.704052448272705,0.14839035272598267
1778957124.8255455,2.206711120605469,-1.2897180175781244,-0.0061372375488281256,0.08429553359746933,1.67863130569458,0.17275886237621307
1778957124.840908,2.17228271484375,-1.2054432678222664,0.18232086181640625,0.136003315448761,1.6612577438354492,0.17393775284290314
1778957124.8550339,2.086810455322266,-0.9406439208984381,0.20088226318359376,0.2018859088420868,1.5951359272003174,0.19037699699401855
1778957124.8700619,2.114652557373047,-0.4204756164550787,0.008232879638671876,0.244875967502594,1.560721516609192,0.18607892096042633
1778957124.884233,2.039209442138672,-0.43649230957031193,-0.14609619140625002,0.272487610578537,1.5501694679260254,0.15227629244327545
1778957124.9015577,1.7820442199707032,-0.3197351074218755,-0.15432907104492188,0.2597343623638153,1.5463377237319946,0.10910674184560776
1778957124.9199483,1.8365309143066406,-0.2216889953613279,-0.09235794067382813,0.23805370926856995,1.4951366186141968,0.06830376386642456
1778957124.9357607,1.8486557006835938,-0.5822891235351566,0.07933502197265625,0.22500154376029968,1.5083644390106201,0.01985367387533188
1778957124.953047,1.5678396606445313,-0.6511459350585938,0.40505767822265626,0.16360901296138763,1.5456364154815674,-0.03624121844768524
1778957124.9772615,1.7402810668945314,-0.6560856628417966,0.39053787231445314,0.19318409264087677,1.4769325256347656,-0.004746976308524609
1778957124.9940062,2.4312442016601565,-0.8509803771972653,0.355660400390625,0.2125231772661209,1.4318145513534546,0.0022171898745000362
1778957125.012583,1.7248631286621094,-0.9395960998535156,0.6020480346679687,0.18718649446964264,1.3974767923355103,-0.04443143308162689
1778957125.0294263,1.3714480590820313,-0.8087681579589852,0.6936575317382813,0.14075744152069092,1.3706837892532349,-0.07460642606019974
1778957125.0865338,1.9164646911621095,-0.5629792785644536,0.6855743408203125,0.09337203204631805,1.0916149616241455,-0.20248755812644958
1778957125.1050048,1.7236656188964845,-0.2354603576660157,0.6565347290039063,0.06002901494503021,1.0518243312835693,-0.1756802350282669
1778957125.1214192,1.8327886962890625,0.11496093749999936,0.7120692443847657,0.04081448167562485,0.9908896088600159,-0.14664185047149658
1778957125.1348567,1.7639318847656251,0.25791366577148445,0.6884184265136719,0.04803774505853653,0.9192045331001282,-0.1387968361377716
1778957125.147626,1.709894256591797,0.5520520019531254,0.5081932067871094,0.047590866684913635,0.8679093718528748,-0.13027897477149963
1778957125.1627882,1.7069004821777345,0.5926176452636724,0.3945794677734375,0.041681885719299316,0.8196244239807129,-0.12057577818632126
1778957125.1792777,1.4412030029296876,0.6188131713867193,0.6261479187011719,0.019689831882715225,0.7751615643501282,-0.09402187168598175
1778957125.1953056,1.1576925659179689,0.7384144592285153,0.8467890930175782,-0.030492842197418213,0.8007377982139587,-0.0924561470746994
1778957125.208864,1.2784913635253907,1.097068634033203,0.8984317016601563,-0.03190644830465317,0.8280040621757507,-0.0926835760474205
1778957125.2250807,1.6922309875488282,1.1596385192871086,0.6923103332519531,0.08083833009004593,0.8096681237220764,-0.10688111931085587
1778957125.2418666,2.279759216308594,1.2876223754882812,0.05987548828125,0.12947465479373932,0.7414701581001282,-0.10666363686323166
1778957125.257555,2.361189880371094,1.2563374328613275,-0.16256195068359375,0.06209040433168411,0.6118243932723999,-0.112554170191288
1778957125.2770596,2.0347187805175784,0.5851332092285162,-0.1387614440917969,-0.020599287003278732,0.6155580282211304,-0.1692020446062088
1778957125.294541,1.6432827758789064,-0.08517288208007834,0.6209088134765626,-0.05671121925115585,0.6451840996742249,-0.1844148188829422
1778957125.3105006,1.6378939819335938,-0.5541476440429687,1.4126124572753906,-0.1129056066274643,0.7380421161651611,-0.1462811976671219
1778957125.3276706,1.9417620849609376,-0.783770141601563,1.545685729980469,-0.12877991795539856,0.8029268383979797,-0.10675269365310669
1778957125.3453338,2.0077748107910156,-0.9520202636718746,1.3617182922363282,-0.10857308655977249,0.8530735969543457,-0.11718491464853287
1778957125.3612561,1.92799072265625,-0.931363220214843,0.7946974182128906,-0.08297231793403625,0.8673428297042847,-0.11178237199783325
1778957125.37838,1.4959890747070312,-0.6963519287109374,0.1550775146484375,-0.07124414294958115,0.8720765113830566,-0.07459463179111481
1778957125.3937538,1.313668212890625,-0.582887878417969,-0.17244140625,-0.0728239044547081,0.83697509765625,-0.01045059971511364
1778957125.409722,1.3189073181152344,-0.2215393066406257,-0.7523355102539063,-0.07059883326292038,0.7858277559280396,0.02294890210032463
1778957125.4243245,1.428629150390625,-0.15283218383789077,-1.0440788269042969,-0.05959385260939598,0.6664267778396606,0.06976780295372009
1778957125.440981,1.3955479431152344,-0.30012588500976634,-1.199755096435547,-0.07164521515369415,0.6242102384567261,0.06938091665506363
1778957125.4564471,1.1527528381347656,-0.4299060058593742,-0.8440946960449219,-0.08602000772953033,0.5499380826950073,0.052658550441265106
1778957125.4711957,1.1368858337402343,-0.505498809814453,-0.6143225097656251,-0.08016931265592575,0.542624294757843,0.040079642087221146
1778957125.4853241,1.0003697204589845,-0.5153782653808587,-0.2808160400390625,-0.06654772907495499,0.620065450668335,-0.006880811881273985
1778957125.5008283,0.5727090454101563,-0.07529342651367266,0.08292755126953126,-0.04468787461519241,0.6921406984329224,-0.02112303487956524
1778957125.5184731,0.48529083251953126,0.3920347595214846,-0.2920426940917969,0.015406116843223572,0.8558611273765564,-0.02460305020213127
1778957125.5353339,0.7432044982910156,0.6747967529296872,-0.5291496276855469,0.09828109294176102,0.8721239566802979,-0.014010799117386341
1778957125.550696,1.6155903625488282,0.8686436462402352,-0.9032217407226563,0.13740293681621552,0.8515806198120117,-0.034092631191015244
1778957125.5671966,1.4904505920410156,0.33275802612304695,-0.8313711547851563,0.11169581860303879,0.8460172414779663,-0.08895300328731537
1778957125.5835478,1.1790980529785158,-0.046403503417968395,-0.6104306030273438,0.03983914479613304,0.8888481259346008,-0.09208937734365463
1778957125.6061134,0.9277706909179688,-0.7735913085937494,0.19309844970703127,0.05818384885787964,0.9332592487335205,-0.020726466551423073
1778957125.6421285,1.0431806945800781,-1.1840377807617184,0.6255491638183595,0.14575354754924774,1.0714962482452393,0.052640777081251144
1778957125.658021,0.5595364379882812,-0.8533753967285165,0.5361849975585937,0.1487807333469391,1.1211581230163574,0.06211165338754654
1778957125.675548,0.6614744567871094,-0.3227288818359373,0.23396347045898438,0.17271551489830017,1.136796474456787,0.07710921764373779
1778957125.690377,0.8864566040039062,-0.1523831176757806,0.13382171630859377,0.2084919661283493,1.094700813293457,0.07703614979982376
1778957125.70712,0.9828561401367188,-0.08532257080078054,0.2537223815917969,0.20438270270824432,1.081913948059082,0.07143738865852356
1778957125.7241461,0.8405021667480469,-0.09265731811523459,0.3694317626953125,0.16423830389976501,1.074092984199524,0.054321955889463425
1778957125.7552762,0.7421566772460938,-0.05942642211913984,0.8122109985351563,0.13612323999404907,1.087724208831787,0.04535830393433571
1778957125.7710319,0.6932084655761719,-0.11630813598632805,0.8033793640136719,0.12998414039611816,1.1166300773620605,0.0411854162812233
1778957125.7869656,0.6674620056152344,-0.2656974792480469,0.6529421997070313,0.14405015110969543,1.1275123357772827,0.04462940990924835
1778957125.8013482,0.7882608032226562,-0.269290008544921,0.6253994750976563,0.18675604462623596,1.1360570192337036,0.06188090145587921
1778957125.8146431,0.9503736877441407,-0.18022521972656236,0.7575746154785157,0.1650613248348236,1.1288728713989258,0.06623172014951706
1778957125.8295853,0.9690847778320313,-0.18426681518554666,0.8451425170898438,0.061616815626621246,1.0948092937469482,0.07870893180370331
1778957125.844716,1.0184820556640626,-0.3318598937988284,0.8569679260253906,0.03686007112264633,1.0885412693023682,0.08929899334907532
1778957125.858879,1.05141357421875,-0.3468287658691409,0.8512797546386719,0.027366114780306816,1.0824817419052124,0.11367299407720566
1778957125.8735695,0.9624984741210938,-0.40101608276367173,0.8199948120117188,0.019725803285837173,1.070296287536621,0.1484193652868271
1778957125.8890138,0.7834707641601563,-0.3950285339355464,0.8536747741699219,0.019900772720575333,1.0818344354629517,0.1601729691028595
1778957125.903987,0.69695068359375,-0.1592687988281245,0.9223818969726563,0.03439504653215408,1.0866661071777344,0.17058666050434113
1778957126.9802651,2.318977661132813,1.4624588012695305,-0.19145187377929687,0.03557943180203438,-0.2125166356563568,-0.08875536173582077
1778957126.9981408,2.1647982788085938,1.1386820983886725,-0.14624588012695314,-0.03367309644818306,-0.1747501790523529,-0.10433685034513474
1778957127.014596,2.109114074707031,0.4396357727050777,0.0028440856933593752,-0.0786798819899559,-0.16823710501194,-0.11135265976190567
1778957127.0308664,2.179018707275391,-0.6503974914550774,0.1646575927734375,-0.08348038047552109,-0.16581490635871887,-0.11181061714887619
1778957127.0474627,1.8690133666992188,-1.5432907104492184,0.10463241577148438,-0.07184534519910812,-0.15015602111816406,-0.11386042088270187
1778957127.064332,1.6509169006347657,-1.759441223144531,0.03442840576171875,-0.07464221864938736,-0.16025198996067047,-0.08537179231643677
1778957127.080006,1.3760884094238282,-1.8532960510253904,-0.3135978698730469,-0.05380324646830559,-0.17225484549999237,-0.06739147007465363
1778957127.0937905,1.2223580932617188,-1.7027091979980469,-0.5415737915039063,0.011093515902757645,-0.199359729886055,-0.014245981350541115
1778957127.1096163,0.8532257080078125,-1.0219248962402343,-0.9283694458007813,0.040738847106695175,-0.2056439220905304,0.007197249680757523
1778957127.1236389,0.632135467529297,-0.7463479614257817,-1.0985655212402343,0.0802205428481102,-0.20630066096782684,0.042552102357149124
1778957127.1413949,0.14325210571289063,-0.5086422729492188,-1.2940589904785156,0.08043865859508514,-0.19637346267700195,0.07340376079082489
1778957127.1558542,-0.08532257080078126,-0.38455032348632834,-0.9038204956054688,0.04220358654856682,-0.16190069913864136,0.11481984704732895
1778957127.1724405,-0.09505233764648438,-0.19549346923828104,-0.4794529724121094,-0.03202745318412781,-0.05721753090620041,0.05839798226952553
1778957127.190748,0.10059082031250001,0.41448806762695334,0.02664459228515625,-0.043035898357629776,-0.007120276801288128,-0.0021926623303443193
1778957127.2056377,0.6194119262695312,0.8777746582031245,-0.4535568237304688,0.03408573567867279,0.04643918201327324,-0.11571961641311646
1778957128.2361155,1.8923648071289063,-0.2463876342773439,-0.07634124755859376,0.06515683233737946,0.5957081317901611,-0.01043219119310379
1778957128.256585,1.937421112060547,-0.26464965820312436,0.07080276489257813,0.04741713032126427,0.45657265186309814,-0.010309187695384026
1778957128.272797,2.0327728271484378,-0.5231620788574212,0.24384292602539065,0.045832548290491104,0.40840911865234375,-0.02839098684489727
1778957128.292767,1.9904109191894532,-0.6782395935058592,0.4231700134277344,0.03608141094446182,0.3283228874206543,-0.06165660172700882
1778957128.3097956,1.999541931152344,-0.6795867919921879,0.5203179931640626,-0.009866639971733093,0.21748146414756775,-0.08235503733158112
1778957128.328619,2.1568647766113282,-0.6978488159179683,0.6975494384765626,-0.057056233286857605,0.12277022749185562,-0.12311398237943649
1778957128.3454318,2.1930894470214843,-0.5632786560058598,0.8373587036132812,-0.09181495755910873,0.015843046829104424,-0.11962785571813583
1778957128.3606791,2.361189880371094,-0.44547363281250085,0.8737330627441406,-0.10536432266235352,-0.04332061484456062,-0.12226426601409912
1778957128.3796492,2.371817779541016,-0.4733157348632808,0.8304730224609376,-0.14218848943710327,-0.12298155575990677,-0.17527176439762115
1778957128.3970823,2.1246817016601565,-0.40071670532226555,0.7869136047363282,-0.18229565024375916,-0.18323250114917755,-0.19581936299800873
1778957128.4458182,2.091899871826172,-0.2978805541992191,0.760269012451172,-0.21022728085517883,-0.24661771953105927,-0.20502613484859467
1778957128.4638484,2.494263153076172,-0.3767665100097659,0.852626953125,-0.2782745063304901,-0.3880857527256012,-0.23879028856754303
1778957128.4813619,2.3414309692382815,-0.48094985961914105,1.0000703430175781,-0.28854605555534363,-0.3924199342727661,-0.24764735996723175
1778957128.496246,2.155667266845703,-0.44277923583984347,1.0975177001953125,-0.3092895448207855,-0.38227447867393494,-0.24167558550834656
1778957128.5116062,2.179318084716797,-0.1823208618164056,1.169817352294922,-0.31361398100852966,-0.3999791741371155,-0.2288987934589386
1778957128.5281813,2.2026695251464843,0.03906875610351612,1.0394384765625,-0.32833507657051086,-0.45556938648223877,-0.21012772619724274
1778957128.545925,2.156565399169922,0.20866607666015646,1.0156379699707032,-0.3258882462978363,-0.5244086384773254,-0.19363628327846527
1778957128.5613434,1.918260955810547,0.8262817382812493,0.6366261291503906,-0.29722869396209717,-0.5586584210395813,-0.16152918338775635
1778957128.5748289,1.8239570617675782,1.065184936523437,0.05059478759765625,-0.17856264114379883,-0.6329861879348755,-0.08009756356477737
1778957128.5892508,1.465602264404297,0.8238867187499999,-1.5301181030273439,-0.09371139854192734,-0.6461682915687561,-0.0616581030189991
1778957128.6061492,1.1024574279785158,0.5465135192871102,-1.7646803283691408,-0.09468705952167511,-0.6421327590942383,-0.09871987253427505
1778957128.6244047,0.5483097839355469,0.40176452636718807,-0.8729846191406251,-0.1825987994670868,-0.617681086063385,-0.17810969054698944
1778957128.672366,1.8191670227050782,-0.2704875183105475,0.26584716796875,-0.1436774730682373,-0.6445888876914978,-0.24120347201824188
1778957128.6893678,1.6006214904785157,-0.565523986816407,0.2435435485839844,-0.167236328125,-0.6295353770256042,-0.21016725897789001
1778957128.707363,1.3401631164550782,-0.8828640747070313,0.08367599487304687,-0.2049451470375061,-0.5711299180984497,-0.1630675494670868
1778957128.7231193,1.287472686767578,-0.9418414306640628,0.028889923095703127,-0.16044960916042328,-0.4708704352378845,-0.1694757640361786
1778957128.763269,1.5144007873535157,-0.595312042236328,0.09595046997070313,0.0005597090348601341,-0.34917768836021423,-0.1282806545495987
1778957128.779945,1.409319305419922,-0.25926086425781314,0.0056881713867187505,0.018401555716991425,-0.32281622290611267,-0.11043035984039307
1778957128.7953146,1.2362791442871095,-0.1086740112304696,0.00239501953125,0.010030926205217838,-0.2540341913700104,-0.08360244333744049
1778957128.8121073,0.9503736877441407,0.1347198486328125,-0.006885681152343751,0.0014731241390109062,-0.21162763237953186,-0.06443434953689575
1778957128.8294616,0.7553292846679688,0.09460327148437564,0.060474243164062504,-0.01857812888920307,-0.12886272370815277,-0.029337016865611076
1778957128.8456888,0.5906716918945313,-0.125139770507813,0.3483256530761719,-0.04854065179824829,-0.05161823704838753,-0.030031217262148857
1778957128.8613687,0.5429209899902344,-0.2056723022460929,0.544866943359375,-0.04478373005986214,0.015230674296617508,-0.04136928170919418
1778957128.8805652,0.48409332275390626,-0.14804214477539013,0.7364685058593751,-0.013616150245070457,0.058654364198446274,-0.042941972613334656
1778957128.8992434,0.4321513366699219,0.03742218017578125,0.6783892822265626,0.06979533284902573,0.10580609738826752,-0.03233332186937332
1778957128.9165921,0.3661386108398438,0.17393829345703082,0.4381388854980469,0.11023935675621033,0.11462057381868362,-0.04212753474712372
1778957128.9317868,0.34623001098632816,0.2421963500976556,0.27497817993164064,0.07495038956403732,0.09505829215049744,-0.060381930321455
1778957128.947926,0.27228378295898437,0.17453704833984318,-0.00748443603515625,0.047297995537519455,0.08963316679000854,-0.06622198224067688
1778957128.965541,0.13307327270507813,-0.03981719970703068,0.09595046997070313,-0.007368860766291618,0.07172197103500366,-0.0728253647685051
1778957128.9877248,0.07574249267578126,-0.17094451904296903,0.276624755859375,-0.0291547030210495,0.08131914585828781,-0.056066203862428665
1778957129.0023744,0.03442840576171875,-0.449066162109375,0.5652246093750001,0.0016955696046352386,0.10547128319740295,-0.03602463752031326
1778957129.0193148,0.16420852661132812,-0.5315446472167977,0.6770420837402344,0.026046887040138245,0.11403113603591919,-0.02666308358311653
1778957129.035753,0.29054580688476567,-0.505498809814453,0.585582275390625,0.0744233950972557,0.12018442898988724,-0.015857670456171036
1778957129.052259,0.32587234497070316,-0.4079017639160156,0.5333409118652344,0.0891701951622963,0.11071720719337463,-0.007736720144748688
1778957129.0693972,0.3147953796386719,-0.13591735839843722,0.4186793518066406,0.0920945405960083,0.08352494984865189,0.004614315461367369
1778957129.085889,0.3165916442871094,-0.1471440124511716,0.39892044067382815,0.09200798720121384,0.07693628966808319,0.003577281255275011
1778957129.1009717,0.3339555358886719,-0.1567240905761711,0.41284149169921874,0.0969400405883789,0.08469082415103912,0.004388635512441397
1778957129.1170633,0.4005670166015625,-0.11541000366210952,0.47136978149414066,0.08477051556110382,0.09200621396303177,0.010977803729474545
1778957129.1346388,0.5852828979492187,-0.11286529541015611,0.5652246093750001,0.053789254277944565,0.09973442554473877,0.026865337044000626
1778957129.151719,0.7080276489257813,-0.14190490722656257,0.6701564025878907,0.06985653936862946,0.12739519774913788,0.046691667288541794
1778957129.172232,0.9175918579101563,-0.15043716430664134,0.8575666809082032,-0.0029950295574963093,0.12139696627855301,0.103866808116436
1778957129.1887577,0.8845106506347656,-0.34533187866211,0.7915539550781251,-0.055181559175252914,0.1409735083580017,0.15066181123256683
1778957129.2043862,0.820144500732422,-0.3986210632324223,0.6981481933593751,-0.057104095816612244,0.16331849992275238,0.17703163623809814
1778957129.219204,0.7641609191894532,-0.30955627441406186,0.7129673767089844,-0.06981591880321503,0.19327279925346375,0.22657065093517303
1778957129.2325373,0.8916957092285157,0.0953517150878902,0.6168672180175782,-0.05693764612078667,0.21019668877124786,0.24618932604789734
1778957129.2479613,1.0340496826171877,0.1781295776367191,0.4528083801269531,0.01567615196108818,0.22388401627540588,0.2415347695350647
1778957129.2628841,1.2181668090820312,0.13142669677734453,0.3004252624511719,0.04261375963687897,0.20143505930900574,0.2467266172170639
1778957129.2794082,1.6362474060058594,0.06676116943359389,0.16031661987304688,0.08443805575370789,0.13159812986850739,0.2610154449939728
1778957129.296149,1.7691709899902344,0.16810043334960945,0.29847930908203124,0.10583272576332092,0.09695480018854141,0.23509611189365387
1778957129.3133466,1.545685729980469,1.009051666259765,-0.5147795104980469,0.22561946511268616,-0.0017362134531140327,0.17925073206424713
1778957129.3320632,1.2395722961425781,1.0738668823242197,-1.3976435852050781,0.313079297542572,-0.01658710278570652,0.24824920296669006
1778957129.346891,0.42706192016601563,0.05478607177734318,-1.92320068359375,0.26883700489997864,1.30385160446167e-07,0.2593577802181244
1778957129.3669546,0.6804849243164063,-0.5269042968749993,-0.4724176025390625,0.12128177285194397,-0.0006635724566876888,0.25292015075683594
1778957129.382811,1.282532958984375,-1.0981164550781255,0.5475613403320313,0.126559317111969,-0.011615091003477573,0.20202630758285522
1778957129.3981953,1.5271243286132814,-1.2657678222656248,0.51013916015625,0.28989335894584656,-0.011641212739050388,0.1719234436750412
1778957129.4147992,1.4971865844726564,-0.8824150085449212,-0.0796343994140625,0.36950308084487915,-0.035689663141965866,0.19830304384231567
1778957129.430832,1.3781840515136718,-0.3950285339355464,-0.3495231628417969,0.3864763379096985,-0.0941658765077591,0.24593426287174225
1778957129.4449685,0.9011260986328126,0.45265869140624915,-0.8003855895996094,0.32873955368995667,-0.1133590117096901,0.2417629510164261
1778957129.4608164,0.7463479614257813,0.8500822448730467,-0.841849365234375,0.20585234463214874,-0.16605015099048615,0.18881772458553314
1778957129.481218,0.7978408813476563,1.1784992980957032,-0.6113287353515625,0.17004868388175964,-0.18871574103832245,0.10119117796421051
1778957129.4968638,0.8876541137695313,0.5105882263183599,-0.17797988891601563,0.1609179824590683,-0.18001046776771545,0.05066802725195885
1778957129.5131202,1.1371852111816407,-0.08412506103515582,0.1579216003417969,0.13606366515159607,-0.1732577383518219,0.007841553539037704
1778957129.5273683,1.308728485107422,-0.25117767333984453,0.22243743896484375,0.11356504261493683,-0.20190340280532837,0.026157910004258156
1778957129.5437815,1.6301101684570314,-0.4670288085937493,0.21390518188476565,0.08907222002744675,-0.2320522516965866,0.031038949266076088
1778957129.5583248,1.7845889282226564,-0.5222639465332026,0.21644989013671875,-0.005303234327584505,-0.3033263683319092,-0.009484189562499523
1778957129.574098,1.9652632141113282,-0.3730242919921878,0.23306533813476563,-0.052314095199108124,-0.3428801894187927,-0.03547666594386101
1778957129.590454,2.1954844665527347,-0.1633103942871088,0.1454974365234375,-0.12021107971668243,-0.44543078541755676,-0.05146235227584839
1778957129.6052413,2.209255828857422,-0.16495697021484368,0.008831634521484376,-0.17251616716384888,-0.5267876982688904,-0.03195635601878166
1778957129.6279793,2.138602752685547,-0.2215393066406257,-0.2966830444335938,-0.21919263899326324,-0.5669207572937012,-0.02237621694803238
1778957129.6675742,1.781744842529297,-0.19953506469726534,-0.6126759338378907,-0.29506608843803406,-0.6387855410575867,-0.04364189878106117
1778957129.6845016,1.76991943359375,-0.43065444946289055,-0.6953041076660157,-0.3083576560020447,-0.6591837406158447,-0.06377460062503815
1778957129.697098,1.8836828613281251,-0.5399272155761725,-0.6842271423339844,-0.2913619577884674,-0.7065874338150024,-0.10156244039535522
1778957129.7128448,2.0550764465332034,-0.7140151977539055,-0.6521937561035157,-0.2735414505004883,-0.7279434204101562,-0.11020870506763458
1778957129.7282758,2.035467224121094,-0.6923103332519531,-0.6436614990234375,-0.28061869740486145,-0.7732293605804443,-0.11491049081087112
1778957129.7435372,1.907633056640625,-0.6578819274902337,-0.6361770629882812,-0.2903536260128021,-0.7925159931182861,-0.12840525805950165
1778957130.8720205,0.729283447265625,-0.13921051025390696,-0.882564697265625,0.18269285559654236,-0.1907990425825119,0.08545928448438644
1778957130.890329,0.9925859069824219,-0.15702346801757727,-0.8851094055175782,0.2256503701210022,-0.20217888057231903,0.08005440980195999
1778957130.9061005,1.2802876281738282,-0.5014572143554688,-0.7839198303222656,0.23662516474723816,-0.21328824758529663,0.07512285560369492
1778957130.9229968,1.1276051330566408,-0.8382568359375,-0.549656982421875,0.2314552217721939,-0.1776895970106125,-0.00250816042535007
1778957130.9373164,1.0795550537109375,-0.8318202209472663,-0.4010160827636719,0.23186492919921875,-0.10976696014404297,-0.049038082361221313
1778957130.9518073,1.1573931884765625,-0.6857240295410154,-0.24054977416992188,0.2321043461561203,-0.0752156525850296,-0.04668091982603073
1778957130.9683962,1.2939093017578125,-0.3716770935058591,0.21540206909179688,0.2247762829065323,0.002032132353633642,-0.04463065415620804
1778957130.9850285,2.005529479980469,-0.1088236999511718,0.8096662902832031,0.21270227432250977,0.03501486778259277,-0.034630872309207916
1778957131.001788,2.863096160888672,0.24114852905273487,1.1991563415527344,0.2029821276664734,0.021331870928406715,0.019488930702209473
1778957131.0154939,3.1094837951660157,0.5908213806152336,1.2626243591308595,0.21203607320785522,-0.00989608932286501,0.06663993000984192
1778957131.0325933,3.0219158935546875,1.3518388366699217,1.2132270812988282,0.2587904930114746,-0.006545814219862223,0.15948505699634552
1778957131.050347,2.7071205139160157,1.606159973144532,1.0624905395507813,0.270438551902771,0.12929333746433258,0.20563878118991852
1778957131.0638483,2.189197540283203,1.97589111328125,1.1003617858886718,0.250905841588974,0.2046930193901062,0.2229890078306198
1778957131.0822613,2.4480093383789066,1.8558407592773438,1.9413130187988281,0.12744297087192535,0.35776692628860474,0.181722491979599
1778957131.0972426,2.705324249267578,1.676663360595704,2.501597900390625,-0.011026187799870968,0.4905645251274109,0.11297169327735901
1778957131.1141813,3.1031968688964846,1.3898597717285153,2.852318572998047,-0.028127942234277725,0.5274274945259094,0.07738067209720612
1778957131.1293666,3.1487022399902345,1.4280303955078129,2.5101301574707033,0.052884772419929504,0.49314066767692566,0.11484820395708084
1778957131.141534,3.1728021240234376,1.4820680236816415,1.2590318298339844,0.1256638467311859,0.4349408447742462,0.19233940541744232
1778957131.1639009,2.6432034301757814,0.5998027038574225,0.31225067138671875,0.19112558662891388,0.3622901141643524,0.29380086064338684
1778957131.183767,2.2384451293945316,-0.5300477600097651,0.30027557373046876,0.10418645292520523,0.28918972611427307,0.3349277973175049
1778957131.1997519,2.086211700439453,-1.0985655212402339,0.37092864990234375,0.022133521735668182,0.23745819926261902,0.3686833381652832
1778957131.2211516,1.9032920837402345,-2.6743386840820316,0.7553292846679688,0.03395311161875725,0.2051452100276947,0.3668651282787323
1778957131.2369976,1.836680603027344,-3.007845153808594,0.8131091308593751,0.09643278270959854,0.20476427674293518,0.31649425625801086
1778957131.2535255,1.7200730895996095,-2.8327093505859375,0.8402027893066407,0.11512337625026703,0.18776452541351318,0.2991381585597992
1778957131.268894,1.7621356201171876,-2.3941213989257815,0.8192463684082032,0.13126802444458008,0.12206043303012848,0.2690739035606384
1778957131.284847,2.0252883911132815,-1.2792398071289064,0.5632786560058594,0.08159290999174118,0.03043132647871971,0.22490836679935455
1778957131.3007436,2.1874012756347656,-0.3010240173339849,0.43828857421875,0.06307322531938553,0.0038515194319188595,0.17865495383739471
1778957131.3180594,2.157762908935547,0.11466156005859318,0.40475830078125,0.07797518372535706,0.01887059584259987,0.0627550557255745
1778957131.334924,2.1698876953125,0.8358618164062506,0.21884490966796877,0.08032329380512238,0.059226810932159424,0.007662510499358177
1778957131.3500874,2.1915925598144534,0.8408015441894534,0.27722351074218754,0.042123302817344666,0.1595831960439682,-0.05698036029934883
1778957131.3650885,2.228415985107422,0.6195616149902339,0.39772293090820315,0.01169557310640812,0.2908736765384674,-0.03846486285328865
1778957131.3813748,2.4110362243652346,0.07439529418945234,0.8678952026367188,-0.03208548575639725,0.33672550320625305,-0.005102843511849642
1778957131.3971932,2.501298522949219,-0.2883004760742196,0.942440185546875,-0.06938900053501129,0.41113120317459106,0.05534639582037926
1778957131.4202871,2.54590576171875,-0.8535250854492187,1.0135423278808595,-0.06808990985155106,0.44901254773139954,0.07066063582897186
1778957131.4355998,2.2641915893554687,-1.1880793762207027,0.9810598754882813,-0.06392379850149155,0.5102308988571167,0.07141070067882538
1778957131.4513793,2.08606201171875,-1.0782078552246102,0.7749385070800782,-0.049173079431056976,0.514466404914856,0.07525497674942017
1778957131.4656086,2.0142114257812502,-0.938548278808593,0.542471923828125,-0.0013738423585891724,0.48013511300086975,0.08415545523166656
1778957131.4805796,1.9718495178222657,-0.7194039916992185,0.07948471069335938,0.016445666551589966,0.4622318744659424,0.07848722487688065
1778957131.4954448,1.8808387756347658,-0.6349795532226565,-0.07679031372070313,0.05086356773972511,0.43461480736732483,0.02453416958451271
1778957131.5112975,1.6244219970703127,-0.39398071289062564,-0.14175521850585937,0.06616156548261642,0.428180068731308,-0.014830545522272587
1778957131.5282824,1.5744259643554688,-0.26869125366210866,-0.046253814697265624,0.07634313404560089,0.4173744022846222,-0.06682475656270981
1778957131.5446656,1.50167724609375,-0.30716125488281243,0.03203338623046875,0.07281554490327835,0.4147794842720032,-0.10863854736089706
1778957131.5609517,1.7345928955078125,-0.5662724304199216,-0.03682342529296875,0.08456181734800339,0.4092448949813843,-0.12609171867370605
1778957131.5750232,1.8256036376953126,-0.7583230590820307,-0.18351837158203127,0.13743190467357635,0.37280336022377014,-0.13741055130958557
1778957131.5878096,1.9848724365234376,-1.3939013671874996,-0.536484375,0.1833895444869995,0.3547061085700989,-0.12975315749645233
1778957131.6045005,1.82021484375,-1.8025515747070315,-0.6544390869140625,0.28573471307754517,0.3261476159095764,-0.12897470593452454
1778957131.6179457,1.2582833862304688,-1.5678396606445322,-0.36703674316406254,0.3242076337337494,0.3056437373161316,-0.13112108409404755
1778957131.632354,1.0391390991210938,-0.9416917419433588,-0.20058288574218752,0.3388291597366333,0.25211021304130554,-0.14006450772285461
1778957131.6497016,0.741108856201172,0.07768844604492209,-0.8235873413085938,0.3305017948150635,0.12389122694730759,-0.09852507710456848
1778957131.6652713,0.4992118835449219,0.25491989135742266,-1.1642788696289064,0.36021679639816284,0.0821637436747551,-0.07769125699996948
1778957131.6809273,-0.09280700683593751,0.04430786132812514,-0.8961863708496094,0.40205875039100647,0.13301408290863037,-0.11838272958993912
1778957131.6979942,-0.10103988647460938,-0.32452514648437436,0.5774990844726563,0.4651053249835968,0.26633211970329285,-0.21167917549610138
1778957131.7132392,0.408350830078125,-0.7179071044921876,1.332828369140625,0.4790836572647095,0.2762783169746399,-0.2538965344429016
1778957131.729666,1.3430072021484376,-1.453028411865235,2.069596252441406,0.4741826355457306,0.23242700099945068,-0.2615477740764618
1778957131.7456312,1.3513897705078126,-1.4395564270019534,2.361339569091797,0.39063701033592224,0.12260084599256516,-0.2852109968662262
1778957131.7626698,-0.1884580993652344,1.2862751770019525,4.549489288330078,0.2571822702884674,0.10183849930763245,-0.28181594610214233
1778957131.778223,0.1502874755859375,5.535638580322265,3.381617889404297,0.14437627792358398,0.20584553480148315,-0.2005297839641571
1778957131.793222,1.7497114562988283,5.553002471923829,0.6017486572265626,0.7746863961219788,0.35254332423210144,-0.11461956799030304
1778957131.8094244,3.259322204589844,3.6395315551757808,-2.195185089111328,0.8904601335525513,0.28777897357940674,-0.12632043659687042
1778957131.825343,3.2889605712890626,2.527344360351563,-1.602118377685547,0.5574581027030945,-0.051000092178583145,-0.31102287769317627
1778957131.841053,3.304827575683594,-0.48259643554687415,0.4712200927734375,0.35011056065559387,-0.1809404343366623,-0.43063628673553467
1778957131.858857,2.063459014892578,-2.6542803955078123,1.7115408325195314,0.15495723485946655,-0.24830162525177002,-0.5527867078781128
1778957131.8763094,1.354084167480469,-2.9309051513671873,1.9163150024414064,0.07056695967912674,-0.15545806288719177,-0.36549216508865356
1778957131.8948781,0.7086264038085938,-2.500849456787109,2.2339544677734375,0.042552653700113297,-0.04448714852333069,-0.1208411306142807
1778957131.910801,1.6100518798828125,-1.4989828491210933,1.8916163635253906,0.07864034920930862,-0.030214469879865646,-0.02653965726494789
1778957131.9357557,2.5333319091796875,-0.5065466308593756,1.4111155700683595,0.14630615711212158,-0.11181486397981644,0.006740482524037361
1778957131.952353,2.1139041137695314,-0.33141082763671825,1.3704002380371094,0.15871238708496094,-0.12559235095977783,0.027840252965688705
1778957131.9674478,0.7644602966308595,0.21195922851562443,1.1129356384277345,0.13945293426513672,-0.058413051068782806,0.055218614637851715
1778957131.98354,0.09595046997070313,0.5704637145996099,1.1852352905273438,0.06813342869281769,0.05977858603000641,0.07632916420698166
1778957131.9974842,-0.08068222045898438,0.963396606445313,1.2481045532226562,0.03635333478450775,0.08081358671188354,0.06930670142173767
1778957132.0133193,0.4183799743652344,0.8044271850585947,1.1219169616699218,0.018270017579197884,0.0035452251322567463,0.0874861478805542
1778957132.0282412,1.050066375732422,-0.046702880859374574,1.0307565307617188,0.019485216587781906,-0.0325603149831295,0.09360795468091965
1778957132.042802,0.8746311950683594,-0.47406417846679716,0.9686357116699219,0.045352451503276825,0.043713077902793884,0.046467021107673645
1778957132.0573297,0.40505767822265626,-0.9963281249999998,0.7915539550781251,0.08986203372478485,0.13610589504241943,-0.008696279488503933
1778957132.0726147,0.08457412719726563,-0.9698332214355467,0.7366181945800782,0.12602916359901428,0.2184201031923294,-0.16865311563014984
1778957132.0871046,0.30491592407226564,-0.5498066711425782,0.868194580078125,0.14416849613189697,0.20338629186153412,-0.1939970850944519
1778957132.101936,0.9749226379394532,-0.17229171752929773,0.9309141540527345,0.23247437179088593,0.011345036327838898,-0.05473322048783302
1778957132.1151547,1.8869760131835938,-0.20492385864257834,1.2371772766113283,0.22261030972003937,-0.2007676661014557,0.024141820147633553
1778957132.1381025,2.076182556152344,-0.6511459350585938,1.4268328857421875,0.10208121687173843,-0.35609742999076843,0.09797536581754684
1778957132.1513958,1.2686119079589844,-1.607806549072265,1.7739610290527346,0.04864218086004257,-0.29238972067832947,0.043862465769052505
1778957132.1656458,0.907562713623047,-1.1015592956542974,1.6512162780761719,0.042045533657073975,-0.28620535135269165,0.0429423451423645
1778957132.180633,0.9967771911621094,-0.6230044555664058,1.4287788391113283,0.06978172808885574,-0.36799123883247375,0.06938096135854721
1778957132.1956286,1.4117143249511719,-0.359402618408204,0.9969268798828126,0.08221200853586197,-0.41714128851890564,0.07044922560453415
1778957132.2127268,1.33881591796875,-0.5980064392089837,0.9319619750976563,0.11645101010799408,-0.4312132000923157,0.08527430891990662
1778957132.227957,0.7722441101074219,-1.2226574707031244,0.7481442260742188,0.13912037014961243,-0.40129977464675903,0.10300830006599426
1778957132.2454844,0.8286767578125,-1.0838960266113276,0.38514907836914064,0.23633134365081787,-0.3753316402435303,0.19023658335208893
1778957132.2583454,1.0886860656738282,-0.8617579650878913,0.13397140502929689,0.32251033186912537,-0.3687179386615753,0.23082484304904938
1778957132.2727973,1.3260923767089845,-0.7285350036621097,-0.09595046997070313,0.5238256454467773,-0.4237090051174164,0.25187182426452637
1778957132.289094,1.3533357238769532,-0.5010081481933586,-0.6506968688964844,0.7296633720397949,-0.5003196597099304,0.21667252480983734
1778957132.306086,1.1256591796875,-1.0268646240234371,-1.4569203186035158,0.8506691455841064,-0.4899384081363678,0.24063538014888763
1778957132.3214967,0.7470964050292969,-1.4503340148925776,-1.747166748046875,1.0196057558059692,-0.3563290238380432,0.22296057641506195
1778957132.3368173,0.43230102539062504,-1.7057029724121087,-1.6830999755859375,1.032687783241272,-0.31271326541900635,0.1769464910030365
1778957132.351945,0.6866221618652344,-1.4084211730957037,-1.5742762756347657,1.0759302377700806,-0.2725536525249481,0.1351785659790039
1778957132.3665814,1.7425263977050782,-1.232686614990234,-1.77949951171875,1.1796419620513916,-0.2110210508108139,0.1980896145105362
1778957132.382767,1.857187957763672,-1.0695259094238274,-2.028731231689453,1.454008936882019,-0.2005673348903656,0.37476015090942383
1778957132.396724,1.5926879882812501,-2.389780426025391,-3.903582458496094,1.689569115638733,-0.26280415058135986,0.42287954688072205
1778957132.4134278,0.8797206115722657,-3.023412780761719,-5.674549713134766,2.353062868118286,-0.0920407772064209,0.23810987174510956
1778957132.430646,-1.1189231872558594,-4.183500366210938,-8.01418441772461,3.0049681663513184,0.012344339862465858,-0.1741768717765808
1778957133.4753115,8.075856170654298,-14.100976867675783,-9.597142639160158,-0.7345004081726074,-1.5583326816558838,-0.2368764877319336
1778957133.493293,5.861211547851563,-15.868201904296875,-7.069049835205078,-0.7285127639770508,-0.7314344644546509,0.4692322909832001
1778957134.663927,3.6420762634277346,-3.9175035095214845,-7.762557678222657,-0.4705717861652374,-0.6997362971305847,0.4160671830177307
1778957134.682715,4.813390502929688,-3.2486943054199218,-7.213349761962891,-0.4040807783603668,-0.45659148693084717,0.32405930757522583
1778957134.6997364,5.8598643493652345,-2.8883935546875,-5.885311431884766,-0.5611041784286499,-0.6058075428009033,0.2704983949661255
1778957134.7167063,5.795198822021485,-2.653981018066406,-5.689069519042969,-0.6277016401290894,-0.8114476799964905,0.20424377918243408
1778957134.730387,4.712200927734375,-2.59380615234375,-6.440806274414062,-0.5708889961242676,-0.8958280682563782,0.16955317556858063
1778957134.748117,4.146227874755859,-2.9930259704589846,-6.818321228027344,-0.5539408922195435,-0.754827082157135,0.10967381298542023
1778957134.764845,3.9474412536621095,-3.1341824340820317,-6.601721649169922,-0.6655128002166748,-0.473702996969223,0.10535943508148193
1778957134.7801435,4.469405822753907,-2.012714538574219,-6.652615814208985,-0.6734087467193604,-0.3552861511707306,0.08689539134502411
1778957134.7963777,4.4300376892089846,-1.2463082885742196,-6.841972045898438,-0.6006443500518799,-0.237577885389328,-0.0021441159769892693
1778957134.8174448,3.4073643493652344,-0.39263351440429695,-7.23819808959961,-0.502708375453949,-0.21337862312793732,-0.03724498301744461
1778957134.8309765,2.3339465332031253,-1.7283059692382814,-7.388934631347657,-0.4761428236961365,-0.12021858990192413,-0.04824596643447876
1778957134.8465986,1.641785888671875,-3.771856384277344,-7.179819488525391,-0.4296600818634033,0.14715425670146942,-0.08276485651731491
1778957134.8639107,1.9236497497558596,-3.999083862304688,-6.746171264648438,-0.45927947759628296,0.2629081904888153,-0.0856986716389656
1778957134.8821938,2.352507934570313,-3.3666490173339847,-5.987399139404297,-0.47912853956222534,0.2510829567909241,-0.0797322690486908
1778957134.8970025,2.47166015625,-2.1248313903808596,-5.991291046142578,-0.5419563055038452,0.09287997335195541,-0.057722460478544235
1778957134.9121912,2.5171655273437503,-1.799857177734376,-6.420298919677735,-0.5758727788925171,-0.0028883651830255985,-0.0330599881708622
1778957134.9268239,2.446362762451172,-2.199675750732422,-8.119415588378907,-0.4280417263507843,-0.1082160472869873,0.0777675062417984
1778957134.942862,2.5295896911621094,-2.771935729980469,-8.580157470703126,-0.16355639696121216,-0.19348880648612976,0.18719904124736786
1778957134.9650123,3.1883697509765625,-3.1728021240234376,-8.217162322998048,-0.06357228755950928,-0.32526880502700806,0.10849323868751526
1778957134.9808416,3.9576200866699223,-1.9890637207031254,-7.556585998535157,0.03520695120096207,-0.4965747594833374,-0.02771446481347084
1778957134.9959738,4.013603668212891,-1.619931335449218,-7.27651840209961,0.11826428771018982,-0.543786346912384,-0.05929015949368477
1778957135.013004,3.509601745605469,-1.8672171020507813,-6.881639556884766,0.13920152187347412,-0.5562036037445068,-0.04805135354399681
1778957135.0259373,3.3256343078613284,-2.2249731445312504,-6.9120263671875,0.04282473027706146,-0.4843578636646271,0.07316312938928604
1778957135.0402315,3.6335440063476563,-1.8986517333984372,-6.872358856201172,0.012607147917151451,-0.4527248442173004,0.1481246054172516
1778957135.0555778,3.721710662841797,-1.563798065185546,-6.8072442626953125,0.11063516139984131,-0.4072880148887634,0.2158365249633789
1778957135.0723116,3.7137771606445313,-1.1267070007324218,-6.522536315917969,0.2797240614891052,-0.23530833423137665,0.21226458251476288
1778957135.0872352,3.326382751464844,-1.1946656799316404,-6.516997833251954,0.2997036278247833,-0.1356416642665863,0.2054162621498108
1778957135.1051712,3.218606872558594,-1.3549822998046874,-6.587052154541016,0.23969140648841858,0.03490930423140526,0.17000554502010345
1778957135.1227796,3.3353640747070314,-1.3470487976074228,-6.693929901123047,0.23582307994365692,0.09179344028234482,0.14191126823425293
1778957135.139248,3.719016265869141,-1.2522958374023432,-6.574627990722656,0.27207472920417786,0.11780299246311188,0.0888010784983635
1778957135.1538885,3.7592825317382816,-1.4344670104980466,-6.427184600830079,0.3416226804256439,0.10713931918144226,0.005729546770453453
1778957135.17052,3.3088691711425784,-1.8540444946289067,-6.468798065185547,0.4147639870643616,0.09780360758304596,-0.06072324514389038
1778957135.1870344,2.8997698974609376,-2.8410919189453123,-6.900799713134766,0.5534362196922302,0.08952636271715164,-0.1854710876941681
1778957135.2007527,3.105142822265625,-3.4913397216796875,-7.089108123779297,0.7299218773841858,0.05839044973254204,-0.2439502328634262
1778957135.2203763,3.7702098083496094,-4.626429290771485,-7.0714448547363284,0.7483185529708862,0.020129039883613586,-0.2642245888710022
1778957135.2371912,3.5630406188964847,-5.4955220031738286,-7.090754699707031,0.5463519096374512,-0.15584616363048553,-0.3265564739704132
1778957135.252721,3.3510813903808594,-5.73607177734375,-7.297325134277344,0.35581058263778687,-0.321865975856781,-0.3119503855705261
1778957135.2692385,3.2093261718750004,-5.591771850585938,-7.546257476806641,0.23934601247310638,-0.41272449493408203,-0.19515161216259003
1778957135.2852116,2.8855494689941406,-5.4266651916503905,-7.967182159423828,0.07152818888425827,-0.5670255422592163,0.2541990280151367
1778957135.301761,2.4492068481445313,-5.36244873046875,-8.074508972167969,0.29856076836586,-0.5480029582977295,0.6838086843490601
1778957135.3183722,1.9468515014648438,-4.917873229980469,-7.718848571777344,0.39847278594970703,-0.46902215480804443,0.8304536938667297
1778957135.3350804,2.901416473388672,-4.122876434326172,-7.316784667968751,0.380746066570282,-0.3523862361907959,0.9980155825614929
1778957135.3497815,3.457210693359375,-3.745660858154297,-7.140002288818359,0.4117749333381653,-0.3932611346244812,0.939148485660553
1778957135.364906,4.146826629638672,-2.935695190429688,-6.7898803710937505,0.4743693172931671,-0.4389524757862091,0.9038234949111938
1778957135.3829901,4.034709777832031,-2.840792541503906,-6.61070297241211,0.47740405797958374,-0.5051199793815613,0.8713710904121399
1778957135.400741,2.727627868652344,-3.3537757873535154,-6.696773986816407,0.29544129967689514,-0.4282255172729492,0.8483467102050781
1778957135.416164,2.126477966308594,-3.63803466796875,-6.654412078857423,0.21637994050979614,-0.3480510711669922,0.8112627863883972
1778957135.432455,2.1872515869140625,-3.729943542480469,-6.7773065185546875,0.21451163291931152,-0.16115960478782654,0.720021665096283
1778957135.4487815,2.9590466308593752,-3.3784744262695314,-7.022047576904297,0.18448396027088165,-0.10948202013969421,0.6823632717132568
1778957135.4633195,3.191213836669922,-2.8710296630859373,-6.720125427246094,-0.019364073872566223,-0.038913559168577194,0.5409215688705444
1778957135.4807532,2.958896942138672,-2.544408874511719,-5.983058166503906,-0.10109730064868927,0.15589116513729095,0.2182481437921524
1778957135.4964502,2.311942291259766,-2.6623635864257817,-4.212240600585938,-0.04546969756484032,0.2943139970302582,0.023026572540402412
1778957135.513276,2.4285498046875,-3.4696348571777342,-3.018622741699219,0.06639005243778229,0.7151320576667786,-0.2921920418739319
1778957135.5297291,2.47166015625,-4.892126770019532,-1.0063572692871094,-0.6889127492904663,1.2599214315414429,-0.3656034767627716
1778957135.5438666,2.817590789794922,-5.698050842285157,-2.3031106567382813,-1.2049446105957031,1.4342063665390015,-0.32283470034599304
1778957135.559736,3.7233572387695313,-5.975873107910156,-4.269421691894531,-1.3007230758666992,1.3239690065383911,-0.1759195178747177
1778957135.5742078,6.396947479248047,-5.461243286132813,-8.72505615234375,-1.0978398323059082,0.977954089641571,-0.07344531267881393
1778957135.5914276,7.167844390869141,-5.001549224853516,-10.054142303466797,-0.8253287672996521,0.20749497413635254,0.01640024036169052
1778957135.6063957,6.726861419677735,-3.488345947265625,-9.371112670898437,-0.846769392490387,0.016158029437065125,-0.02500365860760212
1778957135.6214838,5.359155578613281,-1.0858419799804686,-7.544161834716797,-0.9821854829788208,-0.01999414712190628,-0.14884653687477112
1778957135.636482,5.561534729003906,-0.38035903930664006,-4.3983036804199225,-0.8863502740859985,0.05698692053556442,-0.21423912048339844
1778957135.6522915,6.775061187744141,-0.7833210754394528,-3.1555879211425784,-0.7415462136268616,0.2617216110229492,-0.4090926945209503
1778957135.6682184,7.365583190917969,-1.4859599304199218,-3.270249481201172,-0.8776060342788696,0.2694575786590576,-0.4669134020805359
1778957135.6836853,8.699309692382814,-3.2239956665039067,-4.423451385498047,-1.3091142177581787,0.03278880938887596,-0.2535579204559326
1778957135.6992128,8.49842742919922,-3.960164794921875,-4.999902648925781,-1.6867594718933105,-0.18846780061721802,-0.005669967271387577
1778957135.7213252,6.669081573486329,-3.8703515625,-4.843477935791016,-1.8690893650054932,-0.22560496628284454,0.03804442286491394
1778957135.7352967,5.553900604248047,-2.023192749023438,-3.6718643188476565,-2.273118257522583,-0.23092906177043915,0.09483220428228378
1778957135.7496064,5.6026991271972655,-1.0699749755859376,-3.1855256652832034,-2.6049113273620605,-0.302650511264801,0.10384326428174973
1778957135.7647564,5.825735321044922,-0.04041595458984304,-3.0961614990234376,-2.6765213012695312,-0.345170795917511,0.08606187254190445
1778957135.7802813,5.468877410888672,-0.23785537719726513,-3.19735107421875,-2.749753713607788,-0.41642269492149353,0.032850705087184906
1778957135.7972116,4.819677429199219,-1.0714718627929685,-2.7029292297363283,-2.8499484062194824,-0.418346643447876,0.05678720772266388
1778957135.8143518,4.592300262451172,-1.5051200866699226,-1.7568965148925781,-3.2118568420410156,-0.5498576164245605,0.203881174325943
1778957135.8293655,4.630470886230469,-1.8610798645019528,-1.6205300903320314,-3.6424062252044678,-0.8192750215530396,0.4717048108577728
1778957135.8465927,4.6219386291503906,-3.5033148193359374,-3.6167788696289063,-3.424332857131958,-1.248917818069458,0.7451491951942444
1778957135.862703,3.9076240539550784,-5.4865406799316405,-6.494843902587891,-3.1857657432556152,-1.5467212200164795,0.8201509714126587
1778957135.8813367,1.3474978637695314,-5.436544647216797,-5.805527343750001,-2.967790126800537,-2.110556125640869,0.877620279788971
1778957135.9016778,0.4818479919433594,-6.1522064208984375,-4.762945404052735,-2.148280143737793,-2.3018929958343506,1.1364521980285645
1778957135.916143,0.7095245361328125,-7.627688140869141,-4.284989318847656,-1.6215041875839233,-2.417996406555176,1.5096956491470337
1778957135.9350114,2.6596691894531252,-11.657757568359376,-3.826941833496094,-1.5394797325134277,-2.5001606941223145,1.6930525302886963
1778957135.9519212,3.763324127197266,-12.463082885742189,-3.544179840087891,-1.0101895332336426,-2.478280544281006,1.683139681816101
1778957135.9660618,2.58901611328125,-12.121493225097657,-2.7366091918945314,-0.20711977779865265,-1.8010809421539307,1.3242602348327637
1778957135.983295,-1.1755055236816407,-11.576626281738282,0.5785469055175781,0.05629508197307587,-1.316571831703186,1.1289623975753784
1778957135.997741,-1.9583775329589845,-12.159364471435548,1.28612548828125,0.25910717248916626,-0.783132016658783,1.2494436502456665
1778957136.0151415,0.6494993591308594,-12.931309204101563,0.3725752258300781,0.3297419548034668,-1.049141526222229,1.644881010055542
1778957136.0313954,1.4970368957519533,-12.028386840820314,-2.9171337890625,0.526024580001831,-1.1961495876312256,1.6750231981277466
1778957136.0558457,0.17738113403320313,-11.693682861328126,-4.275858306884766,1.0393692255020142,-1.0868182182312012,1.337849736213684
1778957136.0717845,-4.118834838867188,-7.394922180175781,-4.196822662353516,1.3518046140670776,-0.5003252625465393,0.7577167749404907
1778957136.08989,-3.4278717041015625,-5.4055590820312505,-3.2205528259277347,1.4525712728500366,-0.1296229213476181,0.4720308780670166
1778957136.1081567,0.8164022827148438,-1.5822097778320305,-1.0856922912597657,1.1294807195663452,-0.6304378509521484,0.492912232875824
1778957136.1274471,2.932551727294922,-2.836900634765625,-1.5727793884277343,1.1481735706329346,-0.9905736446380615,0.4287378489971161
1778957136.143237,1.5742762756347657,-6.558311920166016,-3.113375701904297,1.2954837083816528,-1.0005322694778442,0.38997846841812134
1778957136.1621249,2.9820986938476564,-7.476502532958985,-2.243983612060547,1.4257620573043823,-0.3180517852306366,0.279440701007843
1778957136.1801045,7.756121063232422,-5.89893310546875,0.20148101806640625,0.4202374219894409,-0.18463782966136932,0.1905764937400818
1778957136.1972902,10.472522277832033,-5.338049468994141,-0.5966592407226563,-0.29122698307037354,-0.8916311860084534,0.46238958835601807
1778957136.2146065,11.305240631103516,-2.8039691162109373,-7.762857055664063,0.3806696832180023,-1.299534797668457,0.7909734845161438
1778957136.235399,5.25227783203125,-0.6872209167480463,-7.423961791992188,1.0069341659545898,-0.12918201088905334,0.5020735859870911
1778957136.2498388,4.809797973632813,3.1494506835937504,-1.1648776245117187,1.0573678016662598,0.42300382256507874,0.31289806962013245
1778957136.2671103,6.753506011962891,3.465742950439454,0.9283694458007813,0.3477756083011627,0.9203266501426697,0.10406427085399628
1778957136.2841628,9.60163330078125,0.4460723876953132,-0.09774673461914063,-0.049726322293281555,0.9599725604057312,0.5702131986618042
1778957136.3029766,6.388864288330079,-2.1559666442871093,-6.297254791259766,-0.2596137821674347,1.0507909059524536,0.6437928676605225
1778957136.3211856,6.2797412109375,-2.585273895263672,-10.39677978515625,-1.0328636169433594,1.5850015878677368,0.15368911623954773
1778957136.3408158,6.879394226074219,0.029788055419921022,-9.96612533569336,-1.7516841888427734,1.6801884174346924,0.10136274248361588
1778957136.356014,3.0683193969726563,3.7749998474121096,-6.221811676025391,-2.3267822265625,2.283647298812866,0.4118707776069641
1778957136.37333,3.843706970214844,1.7703684997558593,-1.9020945739746096,-2.6797890663146973,2.632321834564209,0.942449688911438
1778957136.392667,10.443931732177735,-2.6614654541015623,1.5558645629882812,-2.47849178314209,2.7191522121429443,0.9931055307388306
1778957136.4100556,17.257762298583984,4.062551879882813,-1.5578105163574218,-4.273260116577148,3.0299766063690186,0.7720341682434082
1778957136.4331334,14.822476501464845,3.65958984375,-5.6396722412109375,-3.007733106613159,3.3931822776794434,1.1215296983718872
1778957136.4826205,17.989740142822267,-1.6705261230468746,2.5463548278808594,-1.9815422296524048,1.672448992729187,-2.218336343765259
1778957136.5029376,9.14223861694336,-5.297483825683594,-2.052681427001953,-1.4889417886734009,1.5843045711517334,-2.050948143005371
1778957136.5195227,5.594166870117188,-13.890215148925783,-3.757635955810547,-1.2956963777542114,1.3940131664276123,-0.37920907139778137
1778957136.5341334,5.620512084960938,-14.913187866210938,-4.031865692138672,-1.7149800062179565,1.4180731773376465,2.123000144958496
1778957136.5504835,7.0099227905273445,-8.32703384399414,-3.579057312011719,-2.1694531440734863,1.2907519340515137,2.5267817974090576
1778957136.5640256,10.412048034667968,-2.333647155761719,-3.3929942321777347,-3.722134828567505,0.5599263310432434,1.681106686592102
1778957136.5790534,15.258819122314454,9.520052947998048,4.966821441650391,-4.716735363006592,0.2060348391532898,1.2786601781845093
1778957136.596347,9.698930969238281,3.573668518066407,12.842992858886719,-4.503763198852539,0.5283312201499939,-0.45372456312179565
1778957136.6101475,5.679489440917969,3.478017425537109,13.1103369140625,-4.524604320526123,1.4094045162200928,-0.9116328954696655
1778957136.6247175,5.316344604492188,3.7675154113769533,12.518916778564455,-4.240861892700195,2.5093400478363037,-0.4697716534137726
1778957136.6438391,8.683292999267579,-9.732311553955078,7.820337524414063,-4.060557842254639,2.594832181930542,-0.04600390046834946
1778957137.7344728,3.2025901794433596,-5.498665466308594,8.378975830078126,1.52043879032135,-0.5796442031860352,-0.4004249572753906
1778957137.7529147,2.449805603027344,-6.394253082275391,7.188351745605469,1.5412557125091553,-0.7337881922721863,-0.4443604648113251
1778957137.7675824,1.7444723510742188,-6.830895080566407,6.910230102539063,1.5921189785003662,-0.5857967138290405,-0.4242716133594513
1778957137.7827919,1.4316229248046877,-6.231840820312501,8.039332122802735,1.5363131761550903,-0.3997766971588135,-0.32158151268959045
1778957137.8233516,1.9507434082031252,-5.768105163574219,8.393495635986328,1.3890330791473389,-0.5050451159477234,-0.13052579760551453
1778957137.8415542,3.210673370361328,-4.621489562988281,7.5012011718750005,1.2897239923477173,-0.6101529002189636,-0.0742078423500061
1778957137.8780086,2.825075225830078,-5.310207366943359,7.61945526123047,1.2231587171554565,-0.5145712494850159,0.0207652747631073
1778957137.8936684,4.204456787109375,-5.605842590332031,8.699459381103516,1.068967580795288,-0.6137324571609497,0.0955420434474945
1778957137.9080052,4.5268862915039065,-5.629044342041016,8.584049377441406,0.8134472966194153,-0.7052986025810242,0.14820681512355804
1778957137.9252307,4.255051574707031,-4.698878631591797,6.298751678466798,0.9270043969154358,-0.6003888845443726,0.22325943410396576
1778957137.9423687,3.2424073791503907,-4.309238891601563,5.651497650146485,0.9734958410263062,-0.5016819834709167,0.27939164638519287
1778957137.956409,3.386856994628906,-4.452191619873047,6.121969299316406,0.9438316226005554,-0.47604647278785706,0.3139011859893799
1778957137.9731698,4.62478271484375,-4.776567077636719,7.470215606689454,0.7529781460762024,-0.8110841512680054,0.2924538850784302
1778957137.9876091,5.573809204101563,-4.305346984863282,7.5224569702148445,0.6169329285621643,-0.9705798029899597,0.3356783092021942
1778957138.004205,4.900808715820313,-4.026925964355469,7.276668090820313,0.5342153906822205,-1.0113463401794434,0.3722319006919861
1778957138.048964,5.479205932617187,-3.972888336181641,5.755082244873047,0.8369665145874023,-0.8522651791572571,0.38578036427497864
1778957138.062361,6.347250823974609,-3.893852691650391,5.806575164794922,0.9483579397201538,-0.8363335132598877,0.410123348236084
1778957138.076808,6.626869354248047,-4.379592590332032,6.957531738281251,1.0445716381072998,-0.9629711508750916,0.4899277985095978
1778957138.090662,6.74197998046875,-3.8839732360839845,7.318281555175782,1.0165767669677734,-0.9748049378395081,0.5727561116218567
1778957138.1073995,4.982239379882813,-3.879781951904297,6.389163665771485,0.9753770232200623,-0.7602094411849976,0.6023465394973755
1778957138.1238775,4.614603881835937,-4.540807342529297,5.641468505859375,0.9408743977546692,-0.6031908392906189,0.3939087986946106
1778957138.1480658,6.0689794921875,-3.989054718017578,3.912114715576172,1.0224415063858032,-0.4801408648490906,0.2653577923774719
1778957138.1637812,6.1541523742675786,-3.4084121704101564,3.766766967773438,1.2940866947174072,-0.3917476236820221,0.3484865128993988
1778957138.1807592,6.244714050292969,-3.8014947509765626,5.3545152282714845,1.258737564086914,-0.40716132521629333,0.39796218276023865
1778957138.194135,5.639971618652344,-4.4192601013183594,5.172493743896484,1.1232295036315918,-0.2865746021270752,0.3953350782394409
1778957138.2114322,4.934039611816407,-4.398004302978515,3.1292427062988284,1.0465089082717896,-0.17197054624557495,0.3011161684989929
1778957138.2300515,7.0748876953125,-2.245330810546875,4.858746185302735,0.919394314289093,-0.6800059676170349,-0.02569769322872162
1778957138.2440996,6.996899871826172,-0.5995033264160163,5.101990356445313,0.8880285620689392,-0.9844239950180054,-0.26667630672454834
1778957138.2598119,4.719385986328125,-1.8220111083984376,4.259991302490235,0.9010010361671448,-0.8636558055877686,-0.2677048444747925
1778957138.2770236,4.175117797851563,-3.553759918212891,4.390819244384766,0.7001135945320129,-0.6584994196891785,-0.1947203278541565
1778957138.2984378,6.22989486694336,-3.6476147460937502,4.754712524414063,0.477538526058197,-0.586913526058197,-0.2156679928302765
1778957138.31534,6.549629974365235,-2.8612998962402347,3.795956268310547,0.5367357730865479,-0.41330045461654663,-0.2532413899898529
1778957138.3307683,6.032904510498047,-1.4485377502441406,1.6269667053222656,0.9013360142707825,-0.17148824036121368,-0.4367305040359497
1778957138.345733,5.4813015747070315,-0.8104147338867183,0.9312135314941407,1.158630132675171,-0.12495057284832001,-0.5593461990356445
1778957138.3581443,5.458548889160157,-0.9452842712402347,1.6842974853515627,1.3253240585327148,-0.13085107505321503,-0.6641231179237366
1778957138.3774226,5.743107147216797,-2.3182292175292973,3.484603729248047,1.3390811681747437,-0.23279361426830292,-0.7608611583709717
1778957138.3905787,6.0344013977050786,-3.066074066162109,3.5956727600097658,1.2730247974395752,-0.3360155522823334,-0.8185847401618958
1778957138.4053073,5.905519409179687,-4.0109092712402346,3.0240115356445316,1.268640398979187,-0.34626951813697815,-0.8599955439567566
1778957138.421473,5.640270996093751,-3.7663179016113286,2.7723847961425783,1.2726750373840332,-0.3365224599838257,-0.9189746975898743
1778957138.437904,6.14367416381836,-2.833457794189453,2.5471032714843753,1.2703558206558228,-0.30366384983062744,-0.9372934699058533
1778957138.4549375,6.658004608154298,-2.1752764892578123,2.6831703186035156,1.3901886940002441,-0.2429494559764862,-0.879253625869751
1778957138.471168,7.136260070800781,-1.754202117919922,2.910996551513672,1.4350521564483643,-0.2299610823392868,-0.9327365159988403
1778957138.4881444,7.223977661132813,-2.548450469970703,3.6835400390625,1.295637845993042,-0.374959796667099,-1.0322085618972778
1778957138.5027916,7.229665832519531,-2.8039691162109373,4.3295965576171875,0.8771833777427673,-0.5557613968849182,-1.071431040763855
1778957138.5165987,6.66054931640625,-3.652704162597656,4.554279327392578,0.7054081559181213,-0.6221675872802734,-1.0439308881759644
1778957138.531663,6.863377532958984,-3.9823187255859374,3.8932539367675782,0.24382251501083374,-0.6665213704109192,-0.843146800994873
1778957138.547606,7.941286010742188,-3.528911590576172,1.9892134094238283,0.056815095245838165,-0.6335261464118958,-0.6173773407936096
1778957138.5649848,7.839198303222656,-1.229393463134766,-1.3724958801269531,0.17680181562900543,-0.5277978181838989,-0.1907924860715866
1778957138.5815468,6.665039978027344,-0.4558021545410149,-2.2312600708007815,0.4851425588130951,0.2559041678905487,0.2595117688179016
1778957138.599866,4.6271777343750005,-0.3674858093261726,-0.310155029296875,0.24983347952365875,0.6853894591331482,0.4550100266933441
1778957138.6153638,4.884941711425782,-0.3412902832031257,0.9964778137207032,0.09784901887178421,0.6121913194656372,0.39636605978012085
1778957138.6311073,5.758674774169922,0.16555572509765604,1.2997471618652345,-0.13858000934123993,0.13144636154174805,0.4273010194301605
1778957138.6457658,6.680906982421876,0.7988887023925777,-0.2820135498046875,-0.11296971887350082,-0.12615056335926056,0.4677552282810211
1778957138.6619391,6.1487635803222656,0.804876251220703,-0.6231541442871094,0.05380883812904358,-0.44377583265304565,0.36192452907562256
1778957138.7052526,4.05761215209961,0.4147874450683595,0.6872209167480469,0.11959818005561829,-0.38480037450790405,0.2470983862876892
1778957138.7192485,6.715185699462891,-0.9111552429199214,1.6220269775390626,0.08049103617668152,-0.6872158050537109,0.06772495061159134
1778957138.7344964,8.225544891357423,-1.3326786804199227,0.5996530151367188,0.21361319720745087,-0.7826388478279114,0.034759052097797394
1778957138.7501884,7.507338409423829,-1.6109500122070308,0.7991880798339844,0.4584038257598877,-0.7452206015586853,0.018989400938153267
1778957138.7658515,5.728587341308594,-1.8217117309570314,1.8455122375488282,0.5377298593521118,-0.6028693318367004,0.12620747089385986
1778957138.7817276,5.451962585449219,-2.0068766784667966,2.0639080810546875,0.5985515713691711,-0.19633346796035767,0.35411274433135986
1778957138.799389,5.02235595703125,-2.726430358886719,2.9307554626464847,0.5566668510437012,-0.08657746016979218,0.1139606311917305
1778957138.8157403,5.849984893798829,-2.7321185302734374,1.2793894958496095,0.6417601108551025,-0.10924626141786575,-0.08376502990722656
1778957138.8325117,5.817053375244141,-2.4219635009765623,1.1693682861328125,0.7848999500274658,-0.041483473032712936,-0.311263769865036
1778957138.846441,4.940625915527344,-2.1409977722167968,0.9732760620117188,0.8623009920120239,0.0426923930644989,-0.30694809556007385
1778957138.8607547,4.022285614013672,-1.8089881896972653,1.0060578918457033,0.957344651222229,0.35145139694213867,-0.19183774292469025
1778957138.8786256,2.9663813781738284,-1.7401313781738281,1.8401234436035157,0.9088461995124817,0.4619182050228119,-0.18727931380271912
1778957138.8934362,4.2873843383789065,-2.377206573486328,2.012714538574219,0.7961784601211548,0.4085319936275482,-0.23670363426208496
1778957138.9360726,6.715934143066407,-3.9127134704589848,-0.173638916015625,0.735865592956543,-0.20365241169929504,0.20964960753917694
1778957138.9541566,5.744304656982422,-2.8277696228027347,-0.465831298828125,0.6224156618118286,-0.49216362833976746,0.1418190449476242
1778957138.968809,5.289700012207032,-2.3592439270019536,-0.4183799743652344,0.7366227507591248,-0.604081392288208,0.05615566298365593
1778957138.9844031,5.661676483154297,-2.49321533203125,-0.24878265380859377,0.8000770807266235,-0.5916454792022705,0.12026967108249664
1778957139.003463,6.0641894531250005,-4.788691864013672,-1.1250604248046876,0.8285308480262756,-0.563741147518158,0.25559544563293457
1778957139.018107,6.0713745117187505,-5.804629211425781,-1.477577362060547,0.9382956624031067,-0.564822793006897,0.2696162760257721
1778957139.037927,5.967939605712891,-5.86390594482422,-0.3403921508789063,1.035461664199829,-0.5959257483482361,0.33028602600097656
1778957139.0564468,6.9217561340332034,-2.9838949584960943,1.5129039001464843,0.9869015216827393,-0.8607679009437561,0.49375104904174805
1778957139.0728884,7.458689575195313,-0.13277389526367145,0.13726455688476563,1.0180118083953857,-1.0470644235610962,0.3920612931251526
1778957139.0879447,7.155719604492188,0.7911048889160153,-1.0915301513671876,1.5938986539840698,-1.189483404159546,0.0794733315706253
1778957139.1047995,5.815556488037109,-3.615581359863281,-2.6065296936035156,1.608241319656372,-1.0477293729782104,0.12510766088962555
1778957139.1565404,7.1435948181152344,-5.424120483398438,-3.0731094360351565,1.6514067649841309,-1.0636556148529053,0.5686648488044739
1778957139.1747768,7.840695190429688,1.773511962890625,-4.333338775634766,1.9133942127227783,-1.24600088596344,-0.06151857227087021
1778957139.19187,5.3651431274414065,0.015717315673828836,-5.971083068847657,2.0518124103546143,-0.9866208434104919,0.2499838024377823
1778957139.2155619,5.25991195678711,-2.661016387939453,-6.418652343750001,2.150580644607544,-0.8773159980773926,0.3754059970378876
1778957139.2347665,5.623206481933594,-2.1224363708496092,-6.9166667175292975,1.8319075107574463,-0.9904622435569763,0.07038083672523499
1778957139.250866,5.694009246826172,-0.3650907897949214,-7.928861846923828,1.6947441101074219,-1.0125048160552979,-0.12832607328891754
1778957139.266717,5.00124984741211,-0.6322851562499991,-8.022117919921875,1.8376532793045044,-0.8424459099769592,-0.13600710034370422
1778957139.2874196,4.419559478759766,-1.494941253662109,-7.697293395996094,1.6732789278030396,-0.731243371963501,-0.17511454224586487
1778957139.3031056,4.439468078613282,-0.8972341918945315,-8.608448638916016,1.627167820930481,-0.6679387092590332,-0.19046686589717865
1778957139.3193986,4.290378112792969,-0.4082011413574218,-8.71353012084961,1.5624786615371704,-0.5988699793815613,-0.2512117922306061
1778957139.3345878,4.397255859375,-1.5646961975097664,-7.679181060791016,1.3503777980804443,-0.5763049125671387,-0.3548913896083832
1778957139.3515036,4.588558044433594,-2.3096969604492186,-7.447163543701172,1.2292457818984985,-0.5920718312263489,-0.37458911538124084
1778957139.3680313,4.606520690917969,-2.2623953247070316,-7.539671173095703,1.0128133296966553,-0.6422207951545715,-0.3782777786254883
1778957139.384035,4.7416896057128906,-2.20102294921875,-8.211773529052735,0.8250815272331238,-0.6647696495056152,-0.44100406765937805
1778957139.3994088,4.821773071289063,-2.1110600280761718,-7.7408528137207036,0.7201915979385376,-0.7011135220527649,-0.48031896352767944
1778957139.4180381,4.764292602539062,-2.1793180847167966,-7.42261459350586,0.5550713539123535,-0.607831597328186,-0.462918758392334
1778957139.4368072,4.1128472900390625,-2.386636962890625,-7.268285522460938,0.511409342288971,-0.26095113158226013,-0.4380662143230438
1778957139.4552765,3.9148091125488285,-3.0704150390625005,-7.17113754272461,0.4130587875843048,-0.014920130372047424,-0.5625953674316406
1778957139.4701164,4.665498046875,-3.7749998474121096,-6.6788113403320315,0.33174341917037964,-0.009895450435578823,-0.6326157450675964
1778957139.4836185,4.8542555236816405,-3.826642456054688,-6.550079040527344,0.18049916625022888,-0.001733529381453991,-0.7582812905311584
1778957139.497265,3.962260437011719,-3.775598602294922,-6.347699890136719,0.12210429459810257,0.05359497293829918,-0.7848092913627625
1778957139.5122259,3.5783088684082034,-3.548221435546875,-6.455326080322266,-0.01386850792914629,0.24518173933029175,-0.7550258636474609
1778957140.6018574,3.8383181762695315,-1.2352313232421874,-0.7108717346191407,0.06272338330745697,0.26937153935432434,-0.022207200527191162
1778957140.6180232,3.6908747863769533,-1.1672726440429688,-0.6683601379394531,0.1047070324420929,0.288434237241745,-0.08863355219364166
1778957140.6411998,3.949536895751953,-0.8178991699218745,-0.06900650024414062,0.12493012845516205,0.2664930522441864,-0.12567561864852905
1778957140.657143,4.181554412841797,-0.7966433715820305,0.09565109252929688,0.09389491379261017,0.19579307734966278,-0.09815962612628937
1778957140.673915,4.238885192871094,-1.0106982421875,0.4025129699707031,0.062166016548871994,0.1647917479276657,-0.09232836961746216
1778957140.688274,3.9531294250488282,-1.127006378173828,0.41433837890625,-0.014045607298612595,0.1663002371788025,-0.1272365003824234
1778957140.7235508,2.9738658142089847,-0.9981243896484369,-0.20118164062500002,-0.056474894285202026,0.2126450389623642,-0.22262689471244812
1778957140.7460833,3.3245864868164063,-1.049317932128906,-0.08427474975585938,-0.051922861486673355,0.14134283363819122,-0.31305384635925293
1778957140.7623994,3.6781512451171876,-1.1511062622070316,0.20462448120117188,-0.10427135974168777,0.11094784736633301,-0.3444959223270416
1778957140.7758572,3.736978912353516,-1.1633807373046867,0.2633024597167969,-0.1697957068681717,0.0945461243391037,-0.4240131080150604
1778957140.7913578,3.410657501220703,-0.9548643493652342,0.3638932800292969,-0.21591313183307648,0.10374069213867188,-0.4570949077606201
1778957140.8085809,3.2251931762695314,-0.7310797119140631,0.2860551452636719,-0.38228893280029297,0.09034822881221771,-0.475103497505188
1778957140.825497,3.11113037109375,-0.17977615356445398,-0.03861968994140625,-0.433453232049942,0.0903942734003067,-0.48370811343193054
1778957140.843178,3.2959959411621096,0.20851638793945249,-0.12888198852539062,-0.4036666750907898,0.0741221234202385,-0.4990500211715698
1778957140.8580916,3.350332946777344,0.359402618408204,-0.15298187255859375,-0.3005163371562958,0.0685899406671524,-0.48248380422592163
1778957140.8727748,3.177592163085938,0.4697232055664067,-0.09280700683593751,-0.2633255422115326,0.11292465031147003,-0.4424021542072296
1778957140.888564,3.0166767883300785,0.58483383178711,-0.271834716796875,-0.12151328474283218,0.3267834186553955,-0.33845844864845276
1778957140.9025917,3.0825398254394534,0.5153782653808587,-1.143472137451172,-0.002217284869402647,0.39130738377571106,-0.29796093702316284
1778957140.915486,3.4117053222656253,-0.02664459228515703,-1.6277151489257813,0.17773643136024475,0.3050769865512848,-0.2625792324542999
1778957140.9303958,4.139940948486329,-1.294358367919921,-1.7390835571289063,0.1667167991399765,0.21571515500545502,-0.2554291784763336
1778957140.9486618,4.365372161865235,-1.7553996276855468,-1.299298095703125,0.016269631683826447,0.08893657475709915,-0.20870184898376465
1778957140.9644065,3.7974531555175783,-2.095941467285156,-0.01945953369140625,-0.10998283326625824,0.14243966341018677,-0.2675356864929199
1778957140.9807582,3.1093341064453126,-1.4171031188964847,0.4209246826171875,-0.10731096565723419,0.23306980729103088,-0.3314026892185211
1778957140.9969409,3.01532958984375,-0.8482859802246097,0.22767654418945313,0.018155399709939957,0.46929821372032166,-0.37610968947410583
1778957141.010667,3.1729518127441407,-0.3647914123535152,-0.35326538085937503,0.08473176509141922,0.5834423303604126,-0.34570837020874023
1778957141.0261316,3.380719757080078,-0.4165837097167966,-0.6330335998535157,0.14691820740699768,0.7739161849021912,-0.25254547595977783
1778957141.0416307,3.786376190185547,-0.5436694335937506,-1.0282118225097656,0.1423507034778595,0.8128672242164612,-0.2173205316066742
1778957141.0574012,3.938759307861328,-0.6508465576171876,-1.0353968811035157,0.1423673778772354,0.8720541000366211,-0.17096325755119324
1778957141.0710711,3.6970120239257813,-0.7270381164550788,-0.7126679992675782,0.15475347638130188,0.9154175519943237,-0.13281773030757904
1778957141.0862412,3.547922058105469,-0.8268804931640634,-0.5586383056640625,0.21302691102027893,1.0089141130447388,-0.0660257339477539
1778957141.1101682,2.908451843261719,-0.9958790588378914,-0.28979736328125,0.24506297707557678,1.0478230714797974,-0.05799664929509163
1778957141.1256404,2.1219873046875,-0.9111552429199214,-0.23261627197265627,0.34112024307250977,1.2482315301895142,-0.04825826734304428
1778957141.1425948,2.5078848266601566,-0.6108796691894529,-0.26734405517578125,0.36718007922172546,1.2807927131652832,-0.010268540121614933
1778957141.1565435,2.7967840576171876,-0.5162763977050773,-0.23905288696289065,0.419305682182312,1.3355258703231812,0.05844046175479889
1778957141.1729114,2.484683074951172,-0.31225067138671925,-0.08532257080078126,0.4335746467113495,1.36018967628479,0.07249262928962708
1778957141.1878552,2.005978546142578,-0.020806732177733878,-0.08277786254882813,0.4684430956840515,1.4471228122711182,0.03880590572953224
1778957141.2019908,1.9854711914062502,0.08247848510742273,-0.2547702026367188,0.5203426480293274,1.5096684694290161,-0.02036943845450878
1778957141.2177534,2.429447937011719,0.1851649475097652,-0.6900650024414063,0.5376885533332825,1.4901206493377686,-0.03572354093194008
1778957141.2321813,2.4598347473144533,0.0827778625488289,-0.7334747314453125,0.5212461352348328,1.4790008068084717,-0.05078601837158203
1778957141.2476993,2.3475682067871095,-0.16810043334960945,-0.42047561645507814,0.5205997824668884,1.4989057779312134,-0.05896884948015213
1778957141.2648122,2.396217041015625,-0.343236236572265,-0.20193008422851563,0.4877810776233673,1.5410797595977783,-0.08504671603441238
1778957141.2804656,2.4396267700195313,-0.5795947265624992,0.11391311645507814,0.5144516825675964,1.5557241439819336,-0.10431590676307678
1778957141.294252,2.4075933837890626,-0.5198689270019532,0.18007553100585938,0.5629730224609375,1.6221394538879395,-0.10959327220916748
1778957141.3114562,2.322570190429688,-0.3947291564941402,0.12005035400390626,0.5311970114707947,1.6628620624542236,-0.10916610062122345
1778957141.3259916,2.7626550292968752,-0.3332070922851571,0.11166778564453125,0.4641284644603729,1.6999742984771729,-0.09377962350845337
1778957141.3408651,2.9963191223144534,-0.40071670532226555,0.11091934204101563,0.4535047113895416,1.6760540008544922,-0.06583262979984283
1778957141.3596663,2.828368377685547,-0.5292993164062505,-0.12229568481445313,0.43871885538101196,1.6553176641464233,0.036943137645721436
1778957141.37489,2.4700135803222656,-0.6761439514160159,-0.21151016235351563,0.4682144224643707,1.717572808265686,0.09020901471376419
1778957141.390118,2.532583465576172,-0.8641529846191407,-0.2758763122558594,0.474129855632782,1.7179261445999146,0.10129975527524948
1778957141.406055,2.4342379760742188,-0.7313790893554692,-0.28036697387695314,0.4399186670780182,1.771439790725708,0.12884947657585144
1778957141.4209924,2.2818548583984377,-0.6063890075683602,-0.3094065856933594,0.4222566783428192,1.8122907876968384,0.15324661135673523
1778957141.4380462,2.643951873779297,-0.5081932067871087,-0.3686833190917969,0.3959037959575653,1.8190964460372925,0.2130972445011139
1778957141.4550798,2.47884521484375,-0.5400769042968747,-0.12214599609375,0.38234010338783264,1.861893653869629,0.2627253830432892
1778957141.4727705,2.1986279296875,-0.47586044311523423,-0.03188369750976563,0.39942842721939087,1.9790072441101074,0.33419591188430786
1778957141.4872596,2.8979736328125,-0.3213816833496086,-0.08187973022460938,0.4105181097984314,1.9582321643829346,0.3760080635547638
1778957141.5038176,3.6512072753906253,-0.2161505126953127,-0.40655456542968754,0.5327121615409851,1.9499517679214478,0.4308079183101654
1778957141.5176764,3.5940261840820313,-0.09475296020507784,-1.6313076782226563,0.6824709177017212,1.9823756217956543,0.4220726191997528
1778957141.5327876,3.3461416625976566,-0.47975234985351634,-2.7592121887207033,1.005045771598816,1.9771255254745483,0.3983277976512909
1778957141.548365,3.8467007446289063,-0.9991722106933594,-3.6107913208007814,0.9986395835876465,1.891387939453125,0.37504562735557556
1778957141.564999,4.132007446289062,-1.1524534606933603,-1.9272422790527344,0.718626856803894,1.6479696035385132,0.21156197786331177
1778957141.5817752,3.8848713684082035,-0.9725276184082023,-1.0355465698242188,0.45959365367889404,1.6226787567138672,0.10015595704317093
1778957141.5970128,3.264112243652344,-0.5001100158691401,0.13621673583984376,0.4276105463504791,1.6753994226455688,0.10054381191730499
1778957141.6135137,3.429368591308594,-0.2531236267089838,0.3980223083496094,0.5400437712669373,1.823466181755066,0.16861410439014435
1778957141.6296265,3.792363739013672,0.09744735717773523,0.17917739868164062,0.635188102722168,1.891509771347046,0.2058381736278534
1778957141.6450171,3.7386254882812504,0.030835876464843537,-0.6954537963867188,0.8010837435722351,1.9954426288604736,0.28947073221206665
1778957141.6630285,3.6863841247558597,-0.2815644836425779,-0.9476792907714844,0.7915363311767578,1.927509069442749,0.24914711713790894
1778957141.6773148,3.7402720642089844,-0.6695576477050782,-1.2121792602539063,0.7133479118347168,1.8998587131500244,0.18353420495986938
1778957141.6928234,3.5353482055664065,-0.8054750061035154,-0.9810598754882813,0.5302107930183411,1.8680522441864014,0.0714293047785759
1778957141.7086535,2.7556196594238282,-0.8505313110351569,-0.3546125793457031,0.4729826748371124,1.907740831375122,-0.008916324935853481
1778957141.723516,2.591560821533203,-0.8418493652343759,-0.0844244384765625,0.49115127325057983,1.9320690631866455,-0.032913267612457275
1778957141.737707,2.9841943359375,-0.9584568786621102,0.26884094238281253,0.5278433561325073,1.9325555562973022,-0.05423729494214058
1778957141.7521935,3.3418006896972656,-1.0620414733886712,0.3285667419433594,0.5788320302963257,1.8656845092773438,-0.10356950759887695
1778957141.769865,3.9689964294433597,-1.3266911315917973,0.22468276977539064,0.530289351940155,1.7480803728103638,-0.12599828839302063
1778957141.7858853,3.986360321044922,-1.2548405456542966,0.22378463745117189,0.5085185766220093,1.7173380851745605,-0.11608520150184631
1778957141.8027182,3.898642730712891,-1.1493099975585945,0.17558486938476564,0.3943503797054291,1.6436203718185425,-0.08261670917272568
1778957141.8205287,3.878734130859375,-1.188678131103515,0.06855743408203126,0.3213239014148712,1.5846985578536987,-0.10341993719339371
1778957141.8361447,3.9618113708496097,-1.2672647094726557,0.07993377685546875,0.34777721762657166,1.5522264242172241,-0.12426746636629105
1778957141.8510978,4.043541412353516,-1.27130630493164,0.11735595703125,0.3739638030529022,1.4431113004684448,-0.14749714732170105
1778957141.8667436,4.123774566650391,-1.3150154113769528,0.276624755859375,0.36119315028190613,1.4021711349487305,-0.1393505334854126
1778957141.883127,4.001628570556641,-1.3316308593750001,0.3694317626953125,0.3004145324230194,1.3293659687042236,-0.12757018208503723
1778957141.897234,3.9841149902343753,-1.336570587158203,0.34503250122070317,0.25414565205574036,1.2754970788955688,-0.12492123246192932
1778957141.9131134,3.796854400634766,-1.2898677062988284,0.22782623291015627,0.26631879806518555,1.2533323764801025,-0.12958505749702454
1778957141.9291205,3.8510417175292972,-1.1898756408691415,0.19145187377929687,0.2951016128063202,1.1631107330322266,-0.1301877796649933
1778957141.943536,4.14577880859375,-1.0771600341796876,0.2820135498046875,0.29880204796791077,1.1240206956863403,-0.1425485759973526
1778957141.9619553,4.018543395996094,-1.0774594116210938,0.3698808288574219,0.27704548835754395,1.1001800298690796,-0.16650021076202393
1778957141.9794126,3.9076240539550784,-0.9978250122070307,0.4614903259277344,0.25030753016471863,1.0288945436477661,-0.1566067934036255
1778957141.9936166,4.226161651611329,-1.1195219421386717,0.700393524169922,0.24779149889945984,0.9927460551261902,-0.16539326310157776
1778957142.0081098,4.089196472167969,-1.1846365356445308,0.8089178466796876,0.22440333664417267,0.9473502039909363,-0.1902647316455841
1778957142.0236735,3.873345336914063,-1.201102294921876,1.0407856750488282,0.19761274755001068,0.9191340208053589,-0.2032734751701355
1778957142.039797,3.8923558044433597,-1.1937675476074219,1.123114471435547,0.15973594784736633,0.8907419443130493,-0.2316218763589859
1778957142.0548375,4.061504058837891,-1.005608825683593,1.074166259765625,0.15812069177627563,0.8798447847366333,-0.23533764481544495
1778957142.0716531,4.166136474609376,-0.8071215820312503,1.0324031066894532,0.1555345058441162,0.8081890940666199,-0.2114000916481018
1778957142.0870767,4.146078186035156,-0.04355941772460881,0.7183561706542969,0.11707308888435364,0.7345656752586365,-0.15156392753124237
1778957142.1016557,4.1769140625,0.5622308349609373,-0.03592529296875,0.13750885426998138,0.6992039084434509,-0.11684109270572662
1778957142.1177382,4.241729278564454,0.37182678222656307,-0.550704803466797,0.19793936610221863,0.6316133141517639,-0.083867147564888
1778957142.1336093,4.41881103515625,-0.0678089904785164,-1.165027313232422,0.2330736368894577,0.48352864384651184,0.01556997187435627
1778957142.1498287,4.415517883300781,-0.2874023437499993,-1.0454260253906251,0.11614614725112915,0.3561862111091614,0.013826010748744011
1778957142.1646714,4.156257019042969,-0.5855822753906246,-0.2540217590332031,0.07637423276901245,0.2857336103916168,-0.0014653275720775127
1778957142.1808615,4.0655456542968755,-0.5941145324707033,0.3459306335449219,0.07116846740245819,0.2476225197315216,0.04096224904060364
1778957142.1961508,3.3870066833496097,-0.5682183837890626,1.4136602783203125,0.02843838930130005,0.3770270049571991,0.01076172012835741
1778957143.3675325,2.24892333984375,-0.644559631347656,0.9415420532226563,0.21275436878204346,1.3682087659835815,-0.05233633145689964
1778957143.3868287,2.4170237731933595,-0.6418652343750004,0.8807684326171875,0.17714063823223114,1.350069284439087,-0.05321116000413895
1778957143.4031687,2.4815396118164066,-0.6526428222656246,0.9665400695800782,0.15094774961471558,1.311510443687439,-0.07698076963424683
1778957143.420606,2.629282379150391,-0.48229705810546797,1.0840457153320313,0.10888167470693588,1.3127226829528809,-0.09276196360588074
1778957143.4343712,2.9186306762695313,-0.3427871704101566,1.1853849792480469,0.10852774232625961,1.3096067905426025,-0.08907987922430038
1778957143.450538,3.0121861267089844,-0.3417393493652341,1.1810440063476564,0.1541723757982254,1.3074135780334473,-0.050412826240062714
1778957143.464775,3.0924192810058595,-0.36119888305664105,1.1669732666015626,0.16843700408935547,1.2896488904953003,-0.01283033937215805
1778957144.4849708,2.5821304321289062,0.7812254333496096,-0.7852670288085938,0.521675169467926,1.8223447799682617,-0.04748735949397087
1778957144.5045328,3.3343162536621094,0.5269042968749993,-0.9602531433105469,0.5110247731208801,1.7770001888275146,-0.03417432680726051
1778957144.5176575,3.4585578918457034,-0.4748126220703117,-0.7476951599121094,0.45189934968948364,1.722303867340088,-0.026890497654676437
1778957144.5354068,3.4290692138671877,-0.8910969543457039,-0.5595364379882812,0.30069786310195923,1.6098185777664185,0.0313526950776577
1778957144.5515292,3.4398468017578128,-1.3025912475585937,-0.3242257690429688,0.23971334099769592,1.5577117204666138,0.06553463637828827
1778957144.5647933,3.4515225219726564,-1.382525024414063,-0.17094451904296876,0.18462172150611877,1.4689053297042847,0.10552922636270523
1778957144.5800927,3.2687525939941406,-1.3436059570312509,-0.030835876464843752,0.19107049703598022,1.441583275794983,0.09565477818250656
1778957144.597417,3.1183154296875,-1.1133847045898442,-0.19534378051757814,0.22575272619724274,1.3833283185958862,0.08376205712556839
1778957144.6526723,3.074756011962891,-1.0627899169921875,-0.38709503173828125,0.24740003049373627,1.3147577047348022,0.06341522186994553
1778957144.6677856,2.9520112609863283,-1.1067984008789065,-0.2832110595703125,0.2233155369758606,1.1353144645690918,-0.06613286584615707
1778957144.6834462,2.9090505981445314,-1.0832972717285152,-0.10059082031250001,0.24368296563625336,1.0978467464447021,-0.08416634052991867
1778957144.6991024,2.916984100341797,-1.0130932617187494,0.13307327270507813,0.27173763513565063,1.0781697034835815,-0.1065523773431778
1778957144.7145276,2.720442810058594,-1.0030641174316415,0.17034576416015626,0.2325764000415802,1.0604066848754883,-0.1794481724500656
1778957144.7303545,2.641407165527344,-0.974024505615235,0.19429595947265627,0.14936307072639465,1.021972894668579,-0.224957674741745
1778957144.745566,2.705324249267578,-0.8967851257324213,0.2281256103515625,0.13661904633045197,0.9918235540390015,-0.22212541103363037
1778957144.7621064,3.0517039489746094,-0.7015910339355464,0.2893482971191406,0.12716242671012878,0.8810003399848938,-0.22249341011047363
1778957144.7777143,3.314257965087891,-0.6653663635253899,0.31105316162109375,0.1299421787261963,0.8068453073501587,-0.24172385036945343
1778957144.7970939,3.4486784362792973,-0.7881111145019535,0.38395156860351565,0.10638687014579773,0.6943527460098267,-0.26100149750709534
1778957144.8133748,3.3455429077148438,-0.8267308044433594,0.4770579528808594,0.043830886483192444,0.6091151237487793,-0.24910598993301392
1778957144.8304076,3.44643310546875,-0.7234455871582028,0.5667214965820313,0.021563606336712837,0.49361923336982727,-0.22413596510887146
1778957144.8465688,3.629801788330078,-0.4053570556640622,0.5897735595703125,0.006937526166439056,0.45833471417427063,-0.2135552316904068
1778957144.8630123,3.3980836486816406,-0.29488677978515554,0.5918692016601563,-0.010629109106957912,0.4483421742916107,-0.22813913226127625
1778957144.8804336,3.236719207763672,0.0038919067382821027,0.6186634826660157,-0.013838006183505058,0.3948780596256256,-0.22968460619449615
1778957144.8983088,3.823049926757813,0.30656250000000007,0.5782475280761719,-0.03134807199239731,0.3848518133163452,-0.23452335596084595
1778957144.9203234,3.675007781982422,1.0591973876953134,0.7117698669433594,-0.058408986777067184,0.4401531517505646,-0.24359595775604248
1778957144.933848,3.851939849853516,1.4099180603027346,-0.12903167724609377,0.008316821418702602,0.46259957551956177,-0.21881245076656342
1778957144.9495394,3.9989341735839847,1.230740661621093,-0.48409332275390626,-0.035668060183525085,0.3865707516670227,-0.160700261592865
1778957144.9640417,3.956422576904297,0.6569837951660151,-0.6691085815429688,-0.07731430232524872,0.3824492394924164,-0.16203583776950836
1778957144.981915,3.8104760742187502,0.2504292297363282,-0.7137158203125,-0.17580117285251617,0.35409975051879883,-0.15628167986869812
1778957144.9971578,3.6203713989257813,-0.6493496704101567,-0.7792794799804688,-0.2385365068912506,0.3195623457431793,-0.11341443657875061
1778957145.012969,3.2849189758300783,-1.5661930847167973,-0.9204359436035157,-0.2909201383590698,0.27639099955558777,-0.01627967320382595
1778957145.0295484,2.8428881835937503,-1.8923648071289065,-1.0121951293945313,-0.20423366129398346,0.32787156105041504,0.026528295129537582
1778957145.0483449,1.924398193359375,-2.123933258056641,-1.099164276123047,-0.14046533405780792,0.36853137612342834,0.023790564388036728
1778957145.064157,1.4926959228515626,-1.611249389648437,-0.6860234069824219,-0.05929403752088547,0.5054045915603638,-0.012325901538133621
1778957145.0824096,1.3295352172851562,-0.9903405761718744,-0.37077896118164066,-0.007795398123562336,0.7293363809585571,-0.010237587615847588
1778957145.100854,1.0747650146484375,0.3957769775390627,0.0940045166015625,0.13784262537956238,0.9149086475372314,-0.03869182989001274
1778957145.1167948,1.45856689453125,1.4566209411621092,-0.5480104064941407,0.28288498520851135,0.9333764314651489,-0.056009162217378616
1778957145.1333475,1.6928297424316407,1.0452763366699216,-1.483864288330078,0.43293994665145874,0.8707343935966492,-0.1039409190416336
1778957145.1506178,1.4772779846191406,0.40341110229492116,-1.565294952392578,0.2529523968696594,0.8049217462539673,-0.23429161310195923
1778957145.1666002,1.2156221008300783,-0.33679962158203125,-0.7857160949707032,0.15131185948848724,0.8185333609580994,-0.2781012952327728
1778957145.183274,1.4891033935546876,-0.6497987365722651,0.288599853515625,0.09140858054161072,0.8106480240821838,-0.24227407574653625
1778957145.1992471,1.739832000732422,-0.956061859130859,0.6233038330078126,0.025587335228919983,0.8226689100265503,-0.1654871106147766
1778957145.2164378,1.9576290893554689,-1.6507672119140633,0.9684860229492188,0.04432886093854904,0.8455976247787476,-0.1536882370710373
1778957145.2338593,1.8253042602539062,-1.6863931274414057,0.9442364501953125,0.08782152831554413,0.9058061242103577,-0.11404597014188766
1778957145.2507591,1.8083894348144531,-1.4308744812011724,0.8092172241210938,0.12550704181194305,0.949300229549408,-0.033574748784303665
1778957145.2662544,2.1092637634277347,-0.6165678405761721,0.5498066711425782,0.14762166142463684,0.9504821300506592,0.012211382389068604
1778957145.2815604,2.369273071289063,-0.22558090209961001,0.4531077575683594,0.147041916847229,0.9035512208938599,0.05400775000452995
1778957145.2990482,2.40220458984375,-0.13442047119140632,0.47062133789062505,0.09664558619260788,0.8544204235076904,0.04342355206608772
1778957145.3146513,2.0049307250976565,-0.10822494506835945,0.6015989685058594,0.07694810628890991,0.859282910823822,0.043535396456718445
1778957145.3311849,1.6783099365234375,-0.18711090087890625,0.7593708801269532,0.058369558304548264,0.9231541752815247,0.06914682686328888
1778957146.3622842,1.6137940979003906,-1.6893869018554692,-0.7156617736816406,-0.08796575665473938,-0.453931987285614,-0.23651856184005737
1778957146.3906446,1.4840139770507814,-1.0123448181152348,-0.4032614135742188,-0.024883601814508438,-0.3874560594558716,-0.25744324922561646
1778957146.4073057,1.4765295410156252,0.8613088989257811,-0.23680755615234375,0.0895087793469429,-0.3213660717010498,-0.26795053482055664
1778957146.4230025,1.5126045227050782,1.39105728149414,-0.49636779785156254,0.2392999678850174,-0.2678343951702118,-0.24282512068748474
