timestamp,AccX,AccY,AccZ,GyroX,GyroY,GyroZ
1778808080.7222784,-0.9463320922851562,-9.789792022705079,-0.9572593688964844,0.015984613448381424,-0.3921818733215332,0.20125816762447357
1778808080.7425735,-1.1044033813476564,-9.743238830566407,-0.42391845703125003,-0.04992422088980675,-0.40549710392951965,0.19022701680660248
1778808080.7620068,-1.1288026428222657,-9.749226379394532,-0.43005569458007814,-0.12477757036685944,-0.41181591153144836,0.17821276187896729
1778808080.7837675,-1.0674302673339844,-9.69878128051758,-0.6653663635253907,-0.1454544961452484,-0.4145207107067108,0.1636100560426712
1778808080.8105714,-1.102756805419922,-9.631571044921875,-0.8812174987792969,-0.14276136457920074,-0.387435644865036,0.17667412757873535
1778808080.8316052,-1.1811936950683595,-9.679770812988282,-0.8879534912109376,-0.1362539380788803,-0.36145174503326416,0.1709347367286682
1778808080.8511524,-1.2147239685058595,-9.716294860839843,-0.9122030639648437,-0.1322738379240036,-0.34845930337905884,0.15211084485054016
1778808080.87204,-1.2048445129394532,-9.819131011962892,-0.9966275024414063,-0.12516818940639496,-0.32557687163352966,0.13868050277233124
1778808080.9268749,-1.2461585998535156,-9.811197509765625,-1.088386688232422,-0.07673640549182892,-0.26647618412971497,0.1587001234292984
1778808080.9467468,-1.5959811401367188,-9.656269683837891,-0.7990383911132813,-0.06465677917003632,-0.24218854308128357,0.16171079874038696
1778808080.9668658,-1.661993865966797,-9.56855209350586,-0.8123606872558594,-0.07162154465913773,-0.24499200284481049,0.17673757672309875
1778808080.9894989,-1.7154327392578126,-9.576036529541016,-0.8536747741699219,-0.09428758174180984,-0.2382585108280182,0.21253184974193573
1778808081.012737,-1.8949095153808595,-9.651180267333984,-0.9886940002441407,-0.09483671188354492,-0.22563309967517853,0.22812867164611816
1778808081.0346951,-2.1764739990234374,-9.73425750732422,-1.071471862792969,-0.07970556616783142,-0.24472001194953918,0.20222815871238708
1778808081.0554414,-2.246378631591797,-9.617500305175781,-0.9238787841796875,-0.07419482618570328,-0.33058157563209534,0.15022119879722595
1778808081.077671,-2.2528152465820312,-9.408235473632812,-0.809366912841797,-0.09078764915466309,-0.40210023522377014,0.12886345386505127
1778808081.0997298,-2.3153851318359377,-9.385782165527344,-0.6535409545898437,-0.13603289425373077,-0.4675196409225464,0.0964483916759491
1778808081.1200123,-2.252366180419922,-9.515412597656251,-0.5686674499511719,-0.1878717690706253,-0.5355901122093201,0.06014321371912956
1778808081.141522,-1.8941610717773438,-9.715396728515625,-0.5986051940917969,-0.22711700201034546,-0.5613118410110474,0.06144154444336891
1778808081.1623187,-1.690734100341797,-9.807305603027345,-0.7071295166015625,-0.2166443169116974,-0.5443938374519348,0.10206031054258347
1778808081.1830077,-1.9360739135742189,-9.882599029541016,-0.7125183105468751,-0.15117575228214264,-0.5081163644790649,0.09329288452863693
1778808081.2056808,-1.9737954711914063,-9.799372100830078,-0.24638763427734375,-0.11880270391702652,-0.5150313377380371,0.048435427248477936
1778808081.2268105,-1.7344432067871094,-9.748477935791016,-0.05194198608398438,-0.18304599821567535,-0.5287856459617615,0.09656427800655365
1778808081.248175,-1.7604890441894532,-9.604776763916016,-0.2682421875,-0.23664098978042603,-0.5193405747413635,0.17542456090450287
1778808081.2689538,-2.245630187988281,-9.53786590576172,-0.7173083496093751,-0.20817625522613525,-0.48498281836509705,0.18418259918689728
1778808081.2891982,-2.6890081787109374,-9.566306762695312,-1.1657757568359375,-0.08952439576387405,-0.42187097668647766,0.1006179004907608
1778808081.3114684,-2.6902056884765626,-9.528435516357423,-1.0999127197265626,0.02516891621053219,-0.3444787561893463,0.029671164229512215
1778808081.332032,-2.4375311279296876,-9.372010803222656,-0.4903802490234375,0.011996841058135033,-0.33189794421195984,-0.0015891245566308498
1778808081.3569155,-2.29921875,-9.359436950683595,-0.16630416870117187,-0.1309220939874649,-0.3852847218513489,0.01408484298735857
1778808081.378505,-2.402953033447266,-9.49625244140625,-0.5267546081542969,-0.14387372136116028,-0.3931121826171875,0.02662440575659275
1778808081.3999438,-2.5306375122070315,-9.685458984375,-0.8343649291992188,-0.08824706077575684,-0.3749648928642273,0.0006677070632576942
1778808081.4212372,-2.53632568359375,-9.749376068115234,-0.8129594421386719,-0.051730990409851074,-0.3746016025543213,-0.04918114095926285
1778808081.4431975,-2.4013064575195315,-9.68441116333008,-0.6092330932617188,-0.055750638246536255,-0.3907998502254486,-0.07587886601686478
1778808081.4642582,-2.278561706542969,-9.479636993408203,-0.52929931640625,-0.08124447613954544,-0.4306359887123108,-0.07702365517616272
1778808081.4854026,-2.329156494140625,-9.428443450927736,-0.6786886596679688,-0.0661630630493164,-0.4361630082130432,-0.09336904436349869
1778808081.5110056,-2.3619383239746097,-9.453291778564454,-0.7569758605957032,-0.05611662194132805,-0.4060325026512146,-0.08701483905315399
1778808081.5319905,-2.4285498046875,-9.410780181884766,-0.7036866760253907,-0.05964837968349457,-0.3706022799015045,-0.08178099989891052
1778808081.5533223,-2.489622802734375,-9.335037689208985,-0.7066804504394532,-0.06585374474525452,-0.35230782628059387,-0.09700872004032135
1778808081.5755665,-2.515069885253906,-9.254056091308595,-0.7072792053222656,-0.06413107365369797,-0.3457309901714325,-0.10385310649871826
1778808081.5960453,-2.592309265136719,-9.303004302978517,-0.6354286193847657,-0.08950847387313843,-0.34570997953414917,-0.10376888513565063
1778808081.6152165,-2.66565673828125,-9.404642944335938,-0.6965016174316406,-0.08627200126647949,-0.32850077748298645,-0.10141728818416595
1778808081.6352844,-2.817740478515625,-9.488618316650392,-0.7406597900390626,-0.06218145042657852,-0.2943294644355774,-0.1109490692615509
1778808081.6563249,-3.0564939880371096,-9.43967010498047,-0.6935078430175782,-0.060994476079940796,-0.2684532701969147,-0.14910870790481567
1778808081.6774282,-3.1293923950195315,-9.45748306274414,-0.7024891662597657,-0.07259460538625717,-0.26548826694488525,-0.21118156611919403
1778808081.6976914,-2.7702891540527346,-9.272318115234375,-0.8910969543457031,-0.03630789369344711,-0.26583078503608704,-0.2328987419605255
1778808081.717859,-2.525697784423828,-9.25959457397461,-0.9553134155273438,0.0043867286294698715,-0.2363060861825943,-0.19057336449623108
1778808081.7380393,-2.638413391113281,-9.385333099365235,-0.789158935546875,-0.013089334592223167,-0.21242529153823853,-0.1467064917087555
1778808081.7603319,-2.775677947998047,-9.508227539062501,-0.7231462097167969,-0.026165321469306946,-0.19167789816856384,-0.14317947626113892
1778808081.7809644,-2.7617568969726562,-9.686506805419922,-0.9722282409667969,-0.05487213283777237,-0.16552847623825073,-0.15956667065620422
1778808081.802347,-2.5417144775390628,-9.747579803466797,-1.2543914794921875,-0.028543327003717422,-0.16991496086120605,-0.1717762053012848
1778808081.8269622,-2.2433848571777344,-9.76404556274414,-1.453926544189453,0.046909149736166,-0.1424633413553238,-0.15059904754161835
1778808081.848218,-2.1776715087890626,-9.808203735351563,-1.2701087951660157,0.0759938508272171,-0.11347337067127228,-0.1455412060022354
1778808081.8690794,-2.2897883605957032,-9.693691864013672,-1.0108479309082032,0.051063548773527145,-0.11346122622489929,-0.14647600054740906
1778808081.8910794,-2.148482208251953,-9.229956207275391,-1.0949729919433595,-0.0015934128314256668,-0.06969640403985977,-0.10851112008094788
1778808081.9159486,-1.951641540527344,-9.245374145507814,-1.2433145141601563,0.03335133194923401,-0.05131564661860466,-0.08381645381450653
1778808081.9378107,-1.7380357360839844,-9.488019561767578,-1.1108399963378908,0.06665834784507751,-0.018435416743159294,-0.03657953813672066
1778808081.959442,-1.8935623168945312,-9.805060272216798,-0.7770341491699219,0.030071035027503967,-0.021841667592525482,-0.037496864795684814
1778808081.9794142,-1.6337026977539064,-9.977950744628906,-0.7012916564941407,-0.08840948343276978,-0.06920584291219711,-0.06126375123858452
1778808082.000124,-1.3049862670898438,-9.868977355957032,-1.1302995300292968,-0.08470846712589264,-0.0883551612496376,-0.06285791099071503
1778808082.0229023,-1.2258009338378908,-9.710157623291016,-1.4940431213378906,0.0439453087747097,-0.06897761672735214,-0.08866577595472336
1778808082.0434775,-1.2826826477050781,-9.650282135009766,-1.234632568359375,0.1686125248670578,-0.030114080756902695,-0.1230938583612442
1778808082.0646296,-1.2419673156738282,-9.678573303222656,-0.5165757751464845,0.14392809569835663,-0.04697651416063309,-0.15017427504062653
1778808082.0870645,-1.0461744689941406,-9.769883422851564,-0.17318984985351563,0.03837030380964279,-0.09743494540452957,-0.1399737447500229
1778808083.2674067,-0.7548802185058594,-9.65327590942383,-3.001558227539063,0.38992923498153687,0.09894384443759918,-0.045940883457660675
1778808083.2879028,-0.6560856628417969,-9.739646301269532,-0.9105564880371094,0.3522787094116211,0.2181728184223175,0.0032899505458772182
1778808083.3093548,-0.4944218444824219,-9.722132720947267,0.7741900634765625,-0.05468127876520157,0.1031309962272644,0.12173626571893692
1778808083.334212,-0.7937992858886719,-9.940229187011719,-0.039517822265625,-0.28003016114234924,0.03006412647664547,0.20898671448230743
1778808083.3543997,-2.0517832946777346,-10.385852508544922,-2.079176330566406,0.01149569358676672,0.24087895452976227,0.1751098483800888
1778808083.3761494,-2.412832489013672,-9.986932067871095,-1.7318984985351564,0.2606832683086395,0.36160019040107727,0.06770368665456772
1778808083.3958921,-2.3435266113281252,-9.335636444091797,-0.4385879516601563,0.275377094745636,0.30726897716522217,-0.024801235646009445
1778808083.4183023,-1.9616706848144532,-8.919651489257813,0.46418472290039064,0.07851015776395798,0.195000559091568,-0.01638980582356453
1778808083.437613,-1.6075071716308595,-8.874595184326171,0.1824705505371094,-0.04533243924379349,0.15725190937519073,0.0335797481238842
1778808083.4590178,-1.6365467834472658,-9.196725311279298,-0.42152343750000004,-0.04368214309215546,0.2073136568069458,0.0437217615544796
1778808083.4802644,-1.7083973693847656,-9.56286392211914,-0.5432203674316407,-0.052673377096652985,0.2544136941432953,-0.012088041752576828
1778808083.5046587,-1.3361215209960937,-9.589358825683595,-0.5408253479003906,-0.0639021173119545,0.35642093420028687,-0.060504406690597534
1778808083.524893,-1.251098327636719,-9.539063415527345,-0.41912841796875,-0.056912921369075775,0.41151466965675354,-0.06581954658031464
1778808083.54814,-1.2079879760742187,-9.462722167968751,-0.4378395080566406,-0.03534765541553497,0.476812481880188,-0.038299545645713806
1778808083.5703273,-1.5200889587402344,-9.329349517822266,-0.4417314147949219,0.03365485742688179,0.5971266031265259,0.045848630368709564
1778808083.5922189,-2.0483404541015626,-9.248816986083986,-0.2989283752441406,0.08117497712373734,0.6512777805328369,0.03813997656106949
1778808083.6139157,-2.336191864013672,-9.173373870849609,-0.2137554931640625,0.11061234772205353,0.7099884152412415,0.02840685285627842
1778808083.6350698,-2.335443420410156,-8.973240051269531,-0.11091934204101563,0.11451075971126556,0.7119895219802856,0.034499868750572205
1778808083.6608562,-2.3176304626464845,-8.99853744506836,-0.15208374023437501,0.0931197851896286,0.69668048620224,0.0515936017036438
1778808083.6815748,-2.549049224853516,-9.423354034423829,-0.108973388671875,0.024808242917060852,0.6727062463760376,0.043527353554964066
1778808083.7017534,-3.0160780334472657,-10.159672851562501,-0.41987686157226567,0.004922603257000446,0.731164813041687,-0.034239187836647034
1778808083.7244973,-3.0026060485839845,-9.924362182617188,-0.5707630920410156,0.029142998158931732,0.7895393967628479,-0.07021182775497437
1778808083.7473907,-2.591111755371094,-9.6615087890625,-0.6026467895507813,0.08581580221652985,0.8237931728363037,-0.011783506721258163
1778808083.7696662,-2.2971231079101564,-10.33256332397461,-0.5057981872558595,0.13132888078689575,0.9036735892295837,0.15006707608699799
1778808083.7903945,-2.365979919433594,-11.202254791259767,-0.3309617614746094,-0.0398852676153183,0.9389181137084961,0.17417258024215698
1778808083.8115773,-2.5539889526367188,-11.273955688476564,-0.41044647216796876,-0.4471161365509033,0.6682419776916504,0.09257052838802338
1778808083.8316693,-1.6615447998046875,-10.053393859863283,-3.2084280395507814,-0.13377276062965393,0.6812127232551575,0.021033553406596184
1778808083.8539252,-1.1840377807617188,-9.115294647216798,-3.872896270751953,0.4939079284667969,0.9988499283790588,-0.023143358528614044
1778808083.8762987,-1.1220666503906251,-8.440946960449219,-1.136436767578125,0.5691674947738647,1.0287725925445557,-0.17893877625465393
1778808083.9399626,0.5140310668945313,-10.830877075195312,-2.843936004638672,-0.5706119537353516,0.9036644697189331,0.06058578938245773
1778808083.963472,-0.35206787109375004,-11.18668716430664,-4.069886627197266,-0.2453116625547409,1.074700117111206,-0.05302448943257332
1778808083.9852228,-0.36598892211914064,-11.004216613769533,-3.7281472778320315,0.07329466938972473,1.1867587566375732,-0.15449751913547516
1778808084.0057561,-0.02664459228515625,-10.228080596923828,-2.4361839294433594,0.22773703932762146,1.2998747825622559,-0.0849807932972908
1778808084.0282593,-0.59635986328125,-9.118138732910158,-0.3658392333984375,0.05646122246980667,1.268048882484436,-0.01774946227669716
1778808084.050775,-0.7042854309082032,-8.873996429443359,-0.08861572265625,-0.15520967543125153,1.128735065460205,-0.046565696597099304
1778808084.0729933,-0.34278717041015627,-8.96021713256836,-0.8379574584960938,-0.24871058762073517,1.0561788082122803,-0.0372006818652153
1778808084.092949,-0.016615447998046876,-9.252559204101564,-1.7483642578125,-0.15405161678791046,1.079054832458496,0.0013358434662222862
1778808084.1131446,-0.1239422607421875,-9.506131896972656,-1.8791921997070313,-0.030680334195494652,1.1416728496551514,0.01711331494152546
1778808084.1338022,-0.27228378295898437,-9.645192718505859,-1.3939013671875,-0.007137586362659931,1.1592180728912354,-0.005698721390217543
1778808084.1550107,0.005538482666015625,-9.641450500488281,-1.0545570373535156,-0.07817188650369644,1.1167304515838623,-0.022898845374584198
1778808084.1761427,0.6313870239257813,-9.662257232666017,-1.4027330017089845,-0.22029279172420502,1.0197035074234009,0.06495989859104156
1778808084.1975415,0.5517526245117188,-9.814490661621095,-1.9089802551269532,-0.2143932580947876,1.0216273069381714,0.1650649905204773
1778808084.2197943,0.020207977294921877,-10.021959228515625,-2.2478755187988284,-0.09751296788454056,1.0477027893066406,0.18156246840953827
1778808084.2448683,-0.42706192016601563,-10.092013549804689,-2.237996063232422,0.04617736488580704,1.0758247375488281,0.12095066905021667
1778808084.268129,-0.3285667419433594,-9.854906616210938,-1.4603631591796875,0.08714549988508224,1.0324981212615967,0.04862603172659874
1778808084.2888234,-0.004939727783203125,-9.680968322753907,-1.2475057983398439,0.0064561860635876656,0.9669406414031982,0.0710538774728775
1778808084.3097222,0.052241363525390626,-9.580676879882812,-1.4171031188964844,-0.023655664175748825,0.9203630089759827,0.13953837752342224
1778808084.3319004,-0.2701881408691406,-9.609417114257813,-1.627415771484375,0.008059188723564148,0.9223259091377258,0.18524618446826935
1778808084.352266,-0.7122189331054688,-9.60058547973633,-1.4953903198242189,-0.005463012494146824,0.9193646907806396,0.15507949888706207
1778808084.3766558,-0.37212615966796875,-9.464069366455078,-1.6509169006347657,-0.055923376232385635,0.8922317028045654,0.1473396122455597
1778808084.3966525,-0.20013381958007814,-9.463470611572266,-2.0038829040527344,-0.0008813692256808281,0.9046114087104797,0.18383435904979706
1778808084.4183292,-0.3373983764648438,-9.608968048095704,-2.1570144653320313,0.0633741244673729,0.9357906579971313,0.21466226875782013
1778808084.4386885,-0.623902587890625,-9.619595947265626,-1.9953506469726563,0.11586035788059235,0.9376883506774902,0.2102966010570526
1778808084.4598904,-0.5980064392089844,-9.639205169677735,-1.9092796325683594,0.14680035412311554,0.9391838908195496,0.21928708255290985
1778808084.4808314,-0.6553372192382813,-9.674531707763672,-1.744771728515625,0.142276793718338,0.907710075378418,0.20602890849113464
1778808084.5038118,-0.5162763977050782,-9.567204895019533,-1.5786172485351564,0.11775419116020203,0.8573136329650879,0.22612720727920532
1778808084.5249503,-0.5620811462402344,-9.358838195800782,-1.7431251525878908,0.08277638256549835,0.8021446466445923,0.28569766879081726
1778808084.5444283,-0.8360115051269532,-9.436526641845704,-2.0803738403320313,0.05452250689268112,0.7806740999221802,0.2690143585205078
1778808084.5647578,-0.9391470336914063,-9.552385711669922,-2.316882019042969,0.05344858765602112,0.7595877051353455,0.23424911499023438
1778808084.5863342,-0.5984555053710938,-9.581575012207031,-2.3858885192871093,0.0945063978433609,0.7475011944770813,0.24353934824466705
1778808084.6091976,-0.3598516845703125,-9.580976257324219,-2.204465789794922,0.08739936351776123,0.7287614345550537,0.2941536009311676
1778808084.6303015,-0.7596702575683594,-9.666448516845703,-2.169738006591797,0.01754937693476677,0.7239319086074829,0.3117416799068451
1778808084.6505165,-1.2551399230957032,-9.686207427978516,-2.342478790283203,-0.014884132891893387,0.6984471678733826,0.23912855982780457
1778808084.6718996,-1.1247610473632812,-9.455537109375001,-2.6466462707519534,0.05019267648458481,0.6894307136535645,0.18396781384944916
1778808084.6931012,-0.8620573425292969,-9.247769165039063,-2.422262878417969,0.13808315992355347,0.7228189706802368,0.218309223651886
1778808084.7145488,-0.9536668395996094,-9.354497222900392,-1.9061361694335939,0.0773034319281578,0.6890082955360413,0.2188168317079544
1778808084.7376559,-0.9053173828125001,-9.395960998535157,-1.8184185791015626,0.03721620887517929,0.6242303848266602,0.21683476865291595
1778808084.7589881,-0.871787109375,-9.444759521484375,-1.9344273376464844,0.05512078106403351,0.5768747925758362,0.23115292191505432
1778808084.7828517,-1.1133847045898437,-9.333690490722656,-1.9898121643066407,0.09658646583557129,0.4960569739341736,0.24162167310714722
1778808084.8029428,-1.2136761474609377,-9.411229248046876,-1.988914031982422,0.07381743937730789,0.4310043752193451,0.22786583006381989
1778808084.8527555,-1.32444580078125,-9.610464935302735,-2.741399230957031,0.104829803109169,0.3534073233604431,0.2108958214521408
1778808084.8732,-1.5658937072753907,-9.555678863525392,-2.695444793701172,0.2074987292289734,0.3759165406227112,0.234706312417984
1778808084.8926616,-1.95673095703125,-9.437424774169923,-2.0591180419921877,0.23741987347602844,0.35938316583633423,0.2388378083705902
1778808084.9140995,-2.2237756347656252,-9.407786407470704,-1.5031741333007813,0.17461368441581726,0.2730889320373535,0.21805492043495178
1778808084.935685,-2.4141796875000003,-9.566306762695312,-1.427431640625,0.13111820816993713,0.18332718312740326,0.18167251348495483
1778808084.9584792,-2.3608905029296876,-9.77018280029297,-1.391356658935547,0.10944093018770218,0.11923569440841675,0.12801803648471832
1778808084.9827254,-2.1847068786621096,-9.827663269042969,-1.2660671997070314,0.03829825669527054,0.08049240708351135,0.10387466847896576
1778808085.002044,-1.9360739135742189,-10.138716430664063,-1.1427236938476564,-0.09319499880075455,0.019644448533654213,0.09051474183797836
1778808085.0237992,-1.7844392395019533,-10.571316833496095,-1.3335768127441407,-0.12768718600273132,0.06190282478928566,0.14287756383419037
1778808085.0774088,-2.365231475830078,-10.933563537597657,-1.474134521484375,-0.04950924217700958,0.2183801382780075,0.2935345470905304
1778808085.1001961,-2.4324417114257812,-10.202483825683593,-1.105151824951172,0.29609790444374084,0.22053293883800507,0.2591727375984192
1778808085.121144,-2.5497976684570314,-9.369166717529298,0.15103591918945314,0.3626711964607239,0.12050465494394302,0.19180534780025482
1778808085.1413803,-2.4539968872070315,-9.002129974365236,0.95561279296875,0.21462853252887726,-0.04547571390867233,0.12639981508255005
1778808085.2148516,-1.648970947265625,-9.253008270263672,-2.073787536621094,-0.008310080505907536,0.1185704693198204,0.095515675842762
1778808085.2385285,-1.6604969787597657,-9.386231231689454,-1.7265097045898439,0.2831423580646515,0.3547896146774292,0.055269043892621994
1778808085.2600818,-1.4437477111816408,-9.350156250000001,-0.6656657409667969,0.2928752601146698,0.4001856744289398,0.030445508658885956
1778808085.2804668,-1.2069401550292969,-9.2591455078125,0.0089813232421875,0.19853219389915466,0.379668265581131,0.04654275253415108
1778808085.3012328,-1.2948074340820312,-9.203461303710938,-0.14609619140625002,0.12145791947841644,0.3679436445236206,0.06939893960952759
1778808085.3214872,-1.7799485778808595,-9.309291229248048,-0.7006929016113281,0.13948065042495728,0.41580018401145935,0.04714459925889969
1778808085.3428538,-2.1137544250488283,-9.393565979003906,-0.9051676940917969,0.20661886036396027,0.4686918258666992,0.003987965174019337
1778808085.3636253,-2.271526336669922,-9.651329956054688,-0.7423063659667969,0.22368894517421722,0.4853198528289795,-0.03793830797076225
1778808085.3836896,-2.208058319091797,-9.959688720703125,-0.6063890075683595,0.22909128665924072,0.46973752975463867,-0.06751558184623718
1778808085.4056692,-1.9944525146484375,-9.935139770507813,-0.5911207580566407,0.22524721920490265,0.4272799491882324,-0.060568951070308685
1778808085.4277632,-1.8383271789550781,-9.71988739013672,-0.6530918884277344,0.19628067314624786,0.38016003370285034,-0.03161062300205231
1778808085.4493825,-2.2872436523437503,-9.373956756591797,-0.918340301513672,0.15795160830020905,0.345144659280777,-0.05733923614025116
1778808085.469919,-2.3346949768066407,-9.292376403808595,-1.0684780883789062,0.1639002412557602,0.37018948793411255,-0.10186899453401566
1778808085.498313,-2.262095947265625,-9.221573638916016,-0.9294172668457031,0.1716623604297638,0.3854329288005829,-0.12077905982732773
1778808085.5186634,-2.0936961364746094,-9.288783874511719,-0.5743556213378906,0.09003467112779617,0.3810449242591858,-0.12308180332183838
1778808085.5406988,-1.9920574951171877,-9.304351501464843,-0.6858737182617188,0.03389936313033104,0.3527509868144989,-0.13753964006900787
1778808085.5617135,-1.8537451171875001,-9.363179168701173,-1.0232720947265626,0.038140181452035904,0.3473690152168274,-0.1275261491537094
1778808085.582596,-1.7555493164062501,-9.408684539794923,-1.021475830078125,0.04313161224126816,0.3459482491016388,-0.10591918975114822
1778808085.6093254,-1.7835411071777345,-9.565857696533204,-0.8430468750000001,-0.09745340049266815,0.33066073060035706,-0.040562987327575684
1778808085.6294215,-2.090552673339844,-9.417965240478516,-1.136436767578125,-0.17423298954963684,0.3133452832698822,-0.0363621786236763
1778808085.6497438,-2.2903871154785156,-9.351802825927734,-1.590143280029297,-0.17152482271194458,0.3264347314834595,-0.04727155342698097
1778808085.6783879,-2.2986199951171877,-9.460626525878906,-1.6528628540039063,-0.16086222231388092,0.33213716745376587,-0.051302470266819
1778808085.7280889,-2.2656884765625,-9.815089416503907,-1.5904426574707031,-0.21846723556518555,0.31586623191833496,-0.022271698340773582
1778808085.7524393,-2.2314097595214846,-9.492959289550782,-2.0408560180664064,-0.13085675239562988,0.328288197517395,0.04171677306294441
1778808085.7743998,-2.17228271484375,-9.564360809326173,-1.7682728576660156,-0.09205518662929535,0.2939409911632538,0.016766458749771118
1778808085.797427,-1.802102508544922,-10.434950408935547,-1.1368858337402343,-0.14936940371990204,0.28456205129623413,0.015582852065563202
1778808085.8182988,-1.6766633605957033,-10.857671356201173,-0.9289682006835938,-0.3797661066055298,0.15642638504505157,-0.03277892619371414
1778808085.8402877,-1.162632293701172,-10.111473083496094,-1.7546511840820314,-0.32603225111961365,0.016251714900135994,-0.0817345455288887
1778808085.8614473,-1.1799961853027345,-9.95220428466797,-3.3548236083984375,0.4481127858161926,0.2844925820827484,-0.40062639117240906
1778808085.88145,-2.1248313903808596,-10.004595336914063,-0.8069718933105469,0.5545702576637268,0.17323309183120728,-0.6188246011734009
1778808085.9047372,1.0403366088867188,-8.878936157226564,1.2982502746582032,0.03605896979570389,0.0694148987531662,-0.20998460054397583
1778808085.957601,0.8080197143554688,-9.823322296142578,-2.172881469726563,-0.15329936146736145,0.2223500907421112,0.14422762393951416
1778808085.9799592,-0.3546125793457031,-9.915680236816407,-2.5604255676269534,0.14578640460968018,0.3263297975063324,0.07446172833442688
1778808086.0017564,-0.49337402343750003,-9.973160705566407,-1.4597644042968752,0.13989077508449554,0.3203112781047821,0.028801921755075455
1778808086.023656,-0.7206015014648438,-10.033036193847657,-0.8509803771972657,0.06998392939567566,0.29653069376945496,-0.03094678372144699
1778808086.0449831,-0.6581813049316406,-9.704619140625,-1.214125213623047,0.11685208976268768,0.35317519307136536,-0.11389999836683273
1778808086.0668795,-0.5412744140625,-9.59923828125,-1.3862672424316407,0.20034493505954742,0.40756240487098694,-0.16591821610927582
1778808086.0885415,-0.20657043457031252,-9.711504821777345,-1.2434642028808593,0.2525692284107208,0.44573795795440674,-0.15553072094917297
1778808086.1100304,-0.20178039550781252,-9.744136962890625,-1.018032989501953,0.23119424283504486,0.4672892689704895,-0.11081505566835403
1778808086.1317856,-0.18082397460937502,-9.629176025390626,-0.8099656677246094,0.14495237171649933,0.4290532171726227,-0.047725610435009
1778808086.1524289,-0.34787658691406254,-9.609117736816406,-1.0038125610351563,0.1217242032289505,0.37802377343177795,-0.0177995003759861
1778808086.1742833,-0.5309458923339844,-9.901310119628906,-1.2536430358886719,0.20238018035888672,0.3905465602874756,-0.029454687610268593
1778808086.194753,-0.5637277221679687,-9.861792297363282,-1.1552975463867188,0.22941258549690247,0.4256398379802704,-0.03521057590842247
1778808086.2182958,-0.4113446044921875,-9.624984741210938,-0.8415499877929687,0.19260351359844208,0.4217105507850647,-0.023231057450175285
1778808086.2404723,-0.4327500915527344,-9.428144073486328,-0.7581733703613281,0.13199415802955627,0.3767325282096863,-0.0012436844408512115
1778808086.2627027,-0.5816903686523438,-9.454189910888672,-0.9839039611816407,0.10080289095640182,0.32341688871383667,0.007070332765579224
1778808086.283005,-0.6737489318847657,-9.595795440673829,-1.0659333801269533,0.08469916135072708,0.3004166781902313,0.030150827020406723
1778808086.302682,-0.6340814208984376,-9.463470611572266,-0.9386979675292969,0.10319706052541733,0.2580001950263977,0.04837941378355026
1778808086.3257504,-0.56282958984375,-9.48667236328125,-0.9617500305175781,0.15086345374584198,0.24226467311382294,0.07661715149879456
1778808086.3461683,-0.5066963195800781,-9.485774230957032,-0.9478289794921876,0.18056447803974152,0.2514622211456299,0.11430905759334564
1778808087.4693038,-1.6603472900390626,-9.848619689941406,-1.0080038452148439,0.37156879901885986,-0.27032509446144104,-0.040258146822452545
1778808087.4893212,-1.7368382263183595,-10.188562774658203,-0.8161029052734375,0.3541441559791565,-0.21639351546764374,-0.04973344877362251
1778808087.5143836,-1.70525390625,-9.987231445312501,-0.9157955932617188,0.3931663930416107,-0.11112381517887115,-0.07108376175165176
1778808087.536926,-1.6108003234863282,-9.691745910644531,-0.4520599365234375,0.4302028715610504,-0.0675654411315918,-0.14757156372070312
1778808087.5581326,-1.6744180297851563,-9.648635559082031,-0.1526824951171875,0.36822235584259033,-0.06073269993066788,-0.12995289266109467
1778808087.5820363,-1.7305513000488282,-9.581874389648439,-0.3165916442871094,0.34297657012939453,-0.00240149674937129,-0.08425779640674591
1778808087.604029,-1.8291961669921877,-9.547895050048828,-0.3453318786621094,0.2771756649017334,0.07929295301437378,-0.061638474464416504
1778808087.6275253,-1.9537371826171877,-9.45598617553711,-0.3070115661621094,0.2310163676738739,0.08476473391056061,-0.08827098459005356
1778808087.6519241,-1.8748512268066406,-9.215586090087891,-0.24758514404296877,0.20748460292816162,0.08481524884700775,-0.09910271316766739
1778808087.6726441,-1.7142352294921877,-9.15421371459961,0.002245330810546875,0.2035713493824005,0.06860784441232681,-0.06770097464323044
1778808087.6941502,-1.5221846008300781,-9.538165283203126,0.23306533813476563,0.1873403936624527,0.07185755670070648,-0.024123888462781906
1778808087.7144618,-1.4850617980957033,-9.60447738647461,0.16480728149414064,0.15077365934848785,0.09876888245344162,-0.011213318444788456
1778808087.7354856,-1.498982849121094,-9.576784973144532,-0.03323089599609375,0.09127303957939148,0.144292950630188,-0.009559495374560356
1778808087.7573164,-1.467099151611328,-9.338929595947267,0.09190887451171875,0.046037450432777405,0.1830727905035019,-0.027630284428596497
1778808087.7779734,-1.2668156433105469,-9.163494415283203,0.40236328125000004,-0.005996185354888439,0.20514200627803802,-0.04930414631962776
1778808087.7993186,-1.1859837341308594,-9.249415740966798,0.659827880859375,-0.06524229049682617,0.2069518119096756,-0.058784596621990204
1778808087.820414,-1.1835887145996093,-9.500743103027345,0.6029461669921875,-0.11387811601161957,0.2339411824941635,-0.07868950814008713
1778808087.8420532,-1.08973388671875,-9.655820617675781,0.5245092773437501,-0.11693461984395981,0.2608923017978668,-0.09558765590190887
1778808087.8626523,-0.9048683166503907,-9.590406646728516,0.64905029296875,-0.11183980107307434,0.28531089425086975,-0.14048360288143158
1778808087.8845336,-0.9412426757812501,-9.518855438232423,0.6083349609375001,-0.1344924420118332,0.3499603569507599,-0.16459035873413086
1778808087.9054296,-1.1918215942382813,-9.348060607910156,0.5010081481933594,-0.14443348348140717,0.41411811113357544,-0.19638170301914215
1778808087.9269414,-1.2504995727539063,-9.276659088134766,0.42541534423828126,-0.06749802827835083,0.49285051226615906,-0.20699210464954376
1778808087.9527225,-1.109941864013672,-9.495653686523438,0.7587721252441406,0.007381799630820751,0.5342246890068054,-0.2054155319929123
1778808087.9744234,-0.9283694458007813,-9.813742218017579,0.9430389404296875,0.05851316452026367,0.5720423460006714,-0.16917827725410461
1778808087.9953942,-1.0162367248535156,-9.819280700683594,0.7972421264648438,0.11701329052448273,0.627604603767395,-0.1583431214094162
1778808088.015872,-1.1909234619140625,-9.839937744140625,0.7210505676269532,0.1252765953540802,0.6454171538352966,-0.16533994674682617
1778808088.0349252,-1.1964619445800782,-9.880653076171875,0.7695497131347656,0.11744692176580429,0.6185795068740845,-0.1547650694847107
1778808088.0559545,-1.2168196105957032,-9.987381134033203,0.9668394470214844,0.10920902341604233,0.5415338277816772,-0.1388123631477356
1778808088.0787292,-1.2702584838867188,-10.059830474853516,0.9915380859375,0.08618587255477905,0.482967346906662,-0.10390504449605942
1778808088.098904,-1.4199472045898438,-10.149344329833985,0.9135502624511719,-0.0022555282339453697,0.46052491664886475,-0.06690952926874161
1778808088.1188066,-1.7089961242675782,-10.644215240478516,0.23456222534179688,-0.2898253798484802,0.4142775535583496,-0.03246798366308212
1778808088.1401043,-1.5855029296875,-10.773546295166016,-1.360221405029297,-0.3276408016681671,0.3643803894519806,-0.03586423769593239
1778808088.1652083,-1.8372793579101563,-11.522738342285157,-1.1018586730957032,-0.23178730905056,0.31933659315109253,-0.1443912237882614
1778808088.1873326,-1.4257850646972656,-11.490255889892579,-0.6991960144042969,-0.10070666670799255,0.3173469007015228,-0.19411052763462067
1778808088.2093782,-0.8628057861328126,-10.796149291992188,-0.5887257385253907,0.06718214601278305,0.256120890378952,-0.19535990059375763
1778808088.2320907,-0.47017227172851567,-10.069410552978516,-0.2808160400390625,0.13118062913417816,0.19126754999160767,-0.12091114372015
1778808088.2528768,-0.346080322265625,-9.57094711303711,0.08098159790039063,0.06878776848316193,0.15562644600868225,0.016150081530213356
1778808088.2754948,-0.5785469055175781,-9.129964141845704,-0.14864089965820312,-0.023381639271974564,0.18039461970329285,0.14870816469192505
1778808088.2951276,-0.7788304138183594,-8.584348754882813,-0.5046006774902344,-0.03821364790201187,0.18020938336849213,0.1766948252916336
1778808088.3146315,-1.0491682434082032,-8.606951751708985,-1.0051597595214845,-0.0005388455465435982,0.15772847831249237,0.10333478450775146
1778808088.3361764,-1.08973388671875,-8.799601135253907,-1.396146697998047,0.041457608342170715,0.1735392063856125,-0.002865283517166972
1778808088.3651288,-0.8186476135253906,-9.36692138671875,-1.5025753784179687,0.08187585324048996,0.19785021245479584,-0.1269780695438385
1778808088.3854127,-0.2796185302734375,-9.474996643066406,-1.2217593383789063,0.08774988353252411,0.14546886086463928,-0.24373573064804077
1778808088.4065757,0.04221221923828125,-9.569899291992188,-1.033450927734375,0.08807358145713806,0.12758968770503998,-0.2927948534488678
1778808088.4265819,0.1525328063964844,-9.733509063720703,-0.8292755126953125,0.08558326214551926,0.15751808881759644,-0.2985444664955139
1778808088.4473474,0.3860472106933594,-10.121951293945314,-0.6688092041015625,0.09547735750675201,0.1699390709400177,-0.26952505111694336
1778808088.4685752,0.44083328247070314,-10.463091888427735,-0.7288343811035156,0.0987139642238617,0.16563667356967926,-0.22098563611507416
1778808088.4906697,0.5249583435058593,-10.472372589111329,-0.8240364074707032,0.1127234697341919,0.08390557765960693,-0.12208778411149979
1778808088.512809,0.36898269653320315,-10.242600402832032,-0.7069798278808594,0.12411419302225113,0.056767538189888,-0.06320496648550034
1778808088.5348637,0.14983840942382814,-9.724378051757814,-0.36973114013671876,0.1449318826198578,0.03991245478391647,-0.012664410285651684
1778808088.5570853,0.05254074096679688,-9.119934997558595,-0.07589218139648438,0.18106023967266083,0.003402962815016508,0.03731208294630051
1778808088.5788507,0.08726852416992188,-9.023535461425782,0.07619155883789062,0.1411041021347046,-0.06340567767620087,0.07787266373634338
1778808088.5981421,0.13666580200195313,-9.334438934326172,-0.09340576171875001,0.062324266880750656,-0.09708230197429657,0.06821341067552567
1778808088.6185293,0.085023193359375,-9.723479919433593,-0.34368530273437503,0.0019888700917363167,-0.09867716580629349,0.022995371371507645
1778808088.6437092,0.010029144287109375,-9.932744750976562,-0.3088078308105469,-0.0020286175422370434,-0.10002316534519196,-0.04886460304260254
1778808088.6691778,0.1347198486328125,-9.801617431640626,-0.21195922851562501,0.028053779155015945,-0.10256258398294449,-0.08513986319303513
1778808088.6927795,0.23785537719726563,-9.670789489746094,0.05403762817382813,0.0432576984167099,-0.11504550278186798,-0.07015981525182724
1778808088.7133994,0.2436932373046875,-9.693542175292968,0.0814306640625,0.044670771807432175,-0.13619846105575562,-0.03808070346713066
1778808088.734314,0.15058685302734376,-9.723479919433593,0,0.03386686369776726,-0.14352448284626007,0.02725609391927719
1778808088.7579138,0.030386810302734376,-9.596543884277343,0.10627899169921876,0.07384637743234634,-0.1810246855020523,0.09190479665994644
1778808088.7821414,-0.010328521728515625,-9.60597427368164,0.4451742553710938,0.0689559355378151,-0.22790665924549103,0.11124084144830704
1778808088.8020308,-0.019010467529296877,-9.571096801757813,0.5912704467773438,0.014340630732476711,-0.2799314856529236,0.13041479885578156
1778808088.8236108,-0.13516891479492188,-9.432335357666016,0.41463775634765626,-0.04073021560907364,-0.28517797589302063,0.16170646250247955
1778808088.8463562,-0.28740234375,-9.641899566650391,0.3501219177246094,-0.042647361755371094,-0.29434746503829956,0.17189276218414307
1778808088.868799,-0.16555572509765626,-9.807754669189453,0.4421804809570313,0.0003179451450705528,-0.34818121790885925,0.15054312348365784
1778808088.8904257,-0.1347198486328125,-9.736353149414063,0.5715115356445313,-0.0006370679475367069,-0.3921697735786438,0.14267174899578094
1778808088.910855,-0.032332763671875,-9.598639526367188,0.7030879211425781,-0.030474860221147537,-0.424002081155777,0.1487066000699997
1778808088.931955,-0.05583389282226563,-9.664951629638672,0.6541397094726563,-0.07532867789268494,-0.4446539878845215,0.16979755461215973
1778808088.9826922,-0.18935623168945315,-10.023456115722658,0.3418890380859375,-0.04355604946613312,-0.5366030335426331,0.2024577111005783
1778808089.0113204,-0.22962249755859376,-9.932295684814454,0.5827381896972657,0.012707572430372238,-0.6135993599891663,0.20463229715824127
1778808089.0336683,-0.20582199096679688,-9.960586853027344,0.70174072265625,0.023902298882603645,-0.6700230836868286,0.21254126727581024
1778808089.0598197,-0.37197647094726566,-10.888058166503907,0.49906219482421876,-0.2687399685382843,-0.7598658800125122,0.26415225863456726
1778808089.0857418,-0.6819818115234375,-11.536659393310547,-1.8145266723632814,-0.41354867815971375,-0.8514350652694702,0.19436177611351013
1778808089.1106381,-1.2557386779785158,-11.628568267822267,-1.7907261657714844,-0.21419468522071838,-0.7911221385002136,0.043406978249549866
1778808089.1340833,-1.3352233886718752,-10.887160034179688,-0.9154962158203126,-0.08461198955774307,-0.7267753481864929,-0.028652656823396683
1778808089.155505,-0.803529052734375,-9.538165283203126,0.16390914916992189,-0.07530898600816727,-0.7935394048690796,0.062415678054094315
1778808089.1772077,-0.6015989685058594,-9.047485656738282,0.13457015991210938,-0.0867607593536377,-0.8188344836235046,0.2047504335641861
1778808089.1985521,-0.6206094360351563,-8.956025848388672,-0.08128097534179687,-0.08923763036727905,-0.8527536392211914,0.29003357887268066
1778808089.218387,-0.861009521484375,-9.158704376220703,-0.31644195556640625,-0.11860471218824387,-0.9055517911911011,0.2930227816104889
1778808089.2391026,-1.1160791015625,-9.348809051513673,-0.5710624694824219,-0.18259011209011078,-0.9672486186027527,0.237361878156662
1778808089.2614045,-1.2868739318847657,-9.522148590087891,-0.9479786682128907,-0.2431861162185669,-1.0031226873397827,0.16203711926937103
1778808089.283002,-1.4337185668945314,-9.67303482055664,-1.2180171203613281,-0.2626343071460724,-1.0295790433883667,0.08844126760959625
1778808089.3049252,-1.7521064758300782,-9.599986724853515,-1.0422825622558594,-0.2835763990879059,-1.071730136871338,0.03176126629114151
1778808089.3270087,-1.8748512268066406,-9.629026336669922,-1.0204280090332032,-0.3051937520503998,-1.093835473060608,0.03102351352572441
1778808089.348571,-1.9805314636230469,-9.668544158935548,-1.0524613952636719,-0.3234536051750183,-1.1326810121536255,0.04548719525337219
1778808089.3689966,-1.8462606811523439,-9.664053497314454,-1.2377760314941406,-0.28432613611221313,-1.182344913482666,0.04652045667171478
1778808089.393057,-1.7784516906738281,-9.588460693359375,-1.1346405029296875,-0.21836920082569122,-1.1998597383499146,0.07260652631521225
1778808089.4144263,-1.827250213623047,-9.47320037841797,-0.9539662170410157,-0.21216696500778198,-1.1669509410858154,0.12432871758937836
1778808089.4360857,-1.9005976867675782,-9.361233215332032,-0.6902146911621094,-0.2774747908115387,-1.1869717836380005,0.17064478993415833
1778808089.4591017,-1.9149678039550782,-9.345665588378907,-0.8964857482910157,-0.2900765836238861,-1.2291045188903809,0.181562140583992
1778808089.7105496,-2.006876678466797,-9.595346374511719,-0.9851014709472656,-0.2755568027496338,-1.2623178958892822,0.153172567486763
1778808089.736604,-2.3929238891601563,-9.646689605712892,-1.3665083312988282,-0.23347033560276031,-1.1024572849273682,-0.04645106941461563
1778808089.7588792,-2.3167323303222656,-9.761949920654297,-1.2519964599609377,-0.21207688748836517,-1.0949991941452026,-0.05990627780556679
1778808089.779641,-2.3436763000488283,-9.886640625,-1.2502001953125002,-0.23468711972236633,-1.0509289503097534,-0.05948163941502571
1778808089.8007026,-2.1701870727539063,-9.620045013427735,-1.1430230712890626,-0.2296929508447647,-1.0219038724899292,-0.0575871616601944
1778808089.8209355,-2.2341041564941406,-9.290131072998047,-1.2252021789550782,-0.21378757059574127,-0.9841083288192749,-0.042964108288288116
1778808089.8692465,-2.313439178466797,-9.212891693115235,-1.3684542846679688,-0.1835801899433136,-0.9278832077980042,-0.10761425644159317
1778808089.896096,-2.371967468261719,-9.397008819580078,-1.268162841796875,-0.17702363431453705,-0.874487578868866,-0.12743856012821198
1778808089.9193895,-2.2573059082031253,-9.416468353271485,-1.210682373046875,-0.18449512124061584,-0.8515799641609192,-0.12537965178489685
1778808089.9410005,-2.314936065673828,-9.385183410644531,-1.292113037109375,-0.18745210766792297,-0.861676037311554,-0.11482778191566467
1778808089.9621494,-2.5336312866210937,-9.50298843383789,-1.3343252563476564,-0.18192130327224731,-0.8321822285652161,-0.11792859435081482
1778808089.9837701,-2.624642028808594,-9.500743103027345,-1.481169891357422,-0.14918354153633118,-0.8229566216468811,-0.1424051970243454
1778808090.0088823,-2.7273284912109377,-9.451495513916017,-1.5281721496582032,-0.13298827409744263,-0.8075421452522278,-0.1545715034008026
1778808090.0310447,-2.5569827270507814,-9.435179443359376,-1.34360595703125,-0.11635170876979828,-0.7940263748168945,-0.18123818933963776
1778808090.0524318,-2.4037014770507814,-9.458081817626953,-1.077609100341797,-0.09826423972845078,-0.8032898902893066,-0.2015095204114914
1778808090.094342,-2.218985595703125,-9.700876922607423,-1.1567944335937501,-0.09005916863679886,-0.8428108096122742,-0.2287306785583496
1778808090.1166143,-2.1408480834960937,-9.81044906616211,-1.2916639709472657,-0.09510080516338348,-0.8710694909095764,-0.2401612401008606
1778808090.1370656,-2.0817210388183596,-9.873767395019533,-1.2855267333984375,-0.06924789398908615,-0.8702173233032227,-0.2566271424293518
1778808090.159,-1.9619700622558596,-9.613009643554689,-1.0738668823242188,-0.016711056232452393,-0.8348184823989868,-0.29046016931533813
1778808090.1835866,-1.7979112243652344,-9.395062866210939,-0.9702822875976563,-0.01927727833390236,-0.8205223679542542,-0.2785409092903137
1778808090.2059405,-1.6652870178222656,-9.377399597167969,-1.0809022521972658,-0.04754175618290901,-0.8143271803855896,-0.2513825297355652
1778808090.228082,-1.8071919250488282,-9.582173767089845,-1.379381561279297,-0.03274655342102051,-0.7317639589309692,-0.23497039079666138
1778808090.2508519,-1.8726058959960938,-9.66869384765625,-1.3416600036621094,0.015633951872587204,-0.6569976210594177,-0.2517090141773224
1778808090.2735646,-1.8928138732910158,-9.673783264160157,-1.2256512451171875,0.036021191626787186,-0.564481794834137,-0.25389793515205383
1778808090.3214533,-1.4040802001953125,-9.629475402832032,-0.8906478881835938,0.11303769052028656,-0.5343857407569885,-0.2739173173904419
1778808090.3446374,-1.3139675903320314,-9.799372100830078,-0.8708889770507813,0.09582939743995667,-0.48741763830184937,-0.27162501215934753
1778808090.3674097,-1.1241622924804688,-9.9010107421875,-0.9330097961425782,0.13304899632930756,-0.4577713906764984,-0.27957311272621155
1778808090.3919487,-1.0193801879882813,-9.82676513671875,-0.7988887023925781,0.14917942881584167,-0.45387738943099976,-0.2642800211906433
1778808090.4165046,-0.7035369873046875,-9.970017242431641,-0.5782475280761719,0.14557018876075745,-0.3872709572315216,-0.24276290833950043
1778808091.5628116,-0.8857081604003907,-9.447902984619141,-1.4160552978515626,-0.10526109486818314,-0.11846316605806351,0.01939353160560131
1778808091.5830019,-0.9333091735839845,-9.389075317382813,-1.5389497375488281,-0.08650843799114227,-0.10090075433254242,-0.06918811798095703
1778808091.6034725,-0.8725355529785157,-9.531279602050782,-1.4630575561523438,-0.014169076457619667,-0.041286107152700424,-0.11875739693641663
1778808091.6235838,-0.7173083496093751,-9.708810424804687,-1.0144404602050783,0.062487632036209106,0.06599826365709305,-0.11603189259767532
1778808091.647153,-0.6099815368652344,-9.956096191406251,-0.5605842590332032,0.06465231627225876,0.128020778298378,-0.060348156839609146
1778808091.6677022,-0.4770579528808594,-10.28705795288086,-0.5228627014160157,-0.007798041682690382,0.13723094761371613,0.004169528838247061
1778808091.688921,-0.5761518859863282,-10.811866607666015,-0.8653504943847656,-0.017961418256163597,0.13788817822933197,0.04163387417793274
1778808091.7092903,-0.9653425598144532,-10.725645904541016,-1.0184820556640626,0.06558136641979218,0.20036065578460693,0.026113443076610565
1778808091.7309046,-1.2530442810058595,-10.17688705444336,-0.9620494079589844,0.14112691581249237,0.2631342113018036,0.0032665999606251717
1778808091.7514877,-1.2602293395996094,-9.395811309814453,-0.7720944213867188,0.18210242688655853,0.28246259689331055,-0.01995263807475567
1778808091.7901986,-1.2219090270996094,-8.650062103271484,-0.32946487426757814,0.12745411694049835,0.2933255732059479,0.019480936229228973
1778808091.8122485,-1.3434562683105469,-8.925938415527344,-0.26794281005859377,0.014858654700219631,0.3449886441230774,0.06504330784082413
1778808091.8327718,-1.4221925354003906,-9.346563720703125,-0.36643798828125,0.004673664458096027,0.37284085154533386,0.03513827547430992
1778808091.8537557,-1.3295352172851562,-9.68021987915039,-0.40266265869140627,0.007746034301817417,0.3579540550708771,-0.020283745601773262
1778808091.8774905,-1.2828323364257812,-9.889634399414064,-0.2508782958984375,-0.03168506920337677,0.3384280502796173,-0.050632841885089874
1778808091.8977451,-1.3335768127441407,-9.773625640869142,-0.22438339233398438,-0.03749869763851166,0.30876588821411133,-0.0808938592672348
1778808091.9168737,-1.4594650268554688,-9.648186492919923,-0.14983840942382814,-0.0664297416806221,0.3200305104255676,-0.09663203358650208
1778808091.9372494,-1.4678475952148438,-9.622140655517578,0.00209564208984375,-0.09695722907781601,0.32622769474983215,-0.08385716378688812
1778808091.9611871,-1.3518388366699219,-9.591454467773438,0.034877471923828125,-0.07436461746692657,0.29893261194229126,-0.07016699016094208
1778808091.982277,-1.3633648681640627,-9.669591979980469,-0.02724334716796875,-0.025769071653485298,0.32589662075042725,-0.04808305576443672
1778808092.004572,-1.4676979064941407,-9.682465209960938,0.07499404907226563,0.003911534324288368,0.3532545268535614,-0.02877495437860489
1778808092.0272896,-1.4051280212402344,-9.433832244873047,0.08711883544921875,0.03843215852975845,0.3702804446220398,0.0009476789273321629
1778808092.0531905,-1.5066169738769533,-9.439370727539062,0.101788330078125,0.03709346055984497,0.36299774050712585,0.020506445318460464
1778808092.0772069,-1.7345928955078125,-9.53936279296875,0.08592132568359376,0.02973734587430954,0.35310354828834534,0.011050999164581299
1778808092.099318,-2.0890557861328127,-9.808802490234376,-0.05044509887695313,0.03769500553607941,0.34787943959236145,-0.017640503123402596
1778808092.1218922,-2.173031158447266,-9.702224121093751,-0.24474105834960938,0.04627864807844162,0.34394723176956177,-0.03602522239089012
1778808092.1433058,-2.29203369140625,-9.53068084716797,-0.34982254028320314,0.06526277214288712,0.36138513684272766,-0.04826316982507706
1778808092.164722,-2.3334974670410156,-9.21693328857422,-0.21480331420898438,0.13762524724006653,0.3750523328781128,-0.042338915169239044
1778808092.1869197,-2.18665283203125,-9.547296295166015,-0.025596771240234375,0.2348782867193222,0.4263375997543335,-0.052271440625190735
1778808092.2102356,-1.947001190185547,-10.564730529785157,-0.09265731811523438,0.11688282340765,0.46528756618499756,-0.0410795584321022
1778808092.2311091,-1.6289126586914062,-10.953621826171876,-1.1198213195800781,-0.06434249877929688,0.35143935680389404,-0.07982730865478516
1778808092.2538757,-1.2504995727539063,-10.839559020996095,-1.8422190856933596,0.07947450876235962,0.2795808017253876,-0.2865370512008667
1778808092.2771168,-0.49636779785156254,-10.46907943725586,-0.814306640625,0.2192380577325821,0.3229749798774719,-0.34623345732688904
1778808092.2980962,0.41688308715820316,-10.119556274414062,0.11750564575195313,0.2314981073141098,0.38144373893737793,-0.27151378989219666
1778808092.31966,0.9946815490722657,-10.105934600830079,0.3607498168945313,0.08512953668832779,0.36162269115448,-0.09940840303897858
1778808092.3392308,0.9690847778320313,-10.55006103515625,-0.38125717163085937,-0.042791709303855896,0.37058722972869873,0.040332235395908356
1778808092.362152,0.3243754577636719,-10.801388397216797,-1.1741583251953125,-0.08768340945243835,0.3239727020263672,0.07693126052618027
1778808092.399013,-0.710123291015625,-9.860445098876953,-1.2636721801757813,0.0017062369734048843,0.2601029872894287,-0.09524951130151749
1778808092.4333377,-0.4668791198730469,-8.680598602294923,-0.47496231079101564,0.06222444027662277,0.3802431523799896,-0.16329047083854675
1778808092.458616,0.026195526123046875,-8.732390899658203,-0.591420135498047,0.08264085650444031,0.4270375370979309,-0.1459529846906662
1778808092.4813347,0.6283932495117188,-9.11155242919922,-0.7258406066894532,0.09148361533880234,0.41236937046051025,-0.12894603610038757
1778808092.505225,1.0626402282714844,-9.523944854736328,-0.609532470703125,0.0650557354092598,0.2846367061138153,-0.10878857225179672
1778808092.5263731,1.0961705017089844,-9.71749237060547,-0.09475296020507813,0.0409143827855587,0.18857043981552124,-0.0996309220790863
1778808092.5477238,1.0044113159179688,-9.837991790771484,0.21555175781250002,-0.008606643415987492,0.11769022047519684,-0.08671949058771133
1778808092.5688622,0.9470805358886719,-10.0255517578125,-0.10403366088867189,-0.08284977078437805,0.04425181820988655,-0.07283639162778854
1778808092.5899286,0.7467970275878907,-10.239007873535156,-0.6831793212890626,-0.10453426092863083,-0.0011889664456248283,-0.08028984069824219
1778808092.6106043,0.4643344116210938,-10.247240753173829,-0.9789642333984375,-0.00841345265507698,0.006157310213893652,-0.09969235956668854
1778808092.6311476,0.31868728637695315,-9.962682495117187,-0.6869215393066407,0.09879826009273529,0.04898715391755104,-0.09775516390800476
1778808092.6517022,0.4221221923828125,-9.300609283447265,-0.018112335205078125,0.06716706603765488,0.051452141255140305,-0.049112070351839066
1778808092.6740007,0.5707630920410156,-9.022188262939453,-0.045954437255859376,-0.0004665488377213478,0.014904824085533619,-0.005356453359127045
1778808092.6962583,0.5081932067871094,-9.219328308105469,-0.07873626708984376,-0.047450173646211624,-0.015776973217725754,0.006691882852464914
1778808092.717154,0.3393443298339844,-9.597891082763672,-0.14100677490234376,-0.06310120970010757,0.007247720379382372,-0.0024947745259851217
1778808092.7377396,0.22528152465820314,-9.870923309326173,-0.1035845947265625,-0.0623287633061409,0.04338223859667778,-0.022779876366257668
1778808092.7600365,0.21031265258789064,-9.924511871337891,-0.16061599731445314,-0.044686540961265564,0.07237475365400314,-0.03253617882728577
1778808092.7813284,0.28216323852539066,-9.88948471069336,-0.2808160400390625,-0.0015628407709300518,0.06230397894978523,-0.027181662619113922
1778808092.8009007,0.30252090454101566,-9.849667510986329,-0.18426681518554688,0.04688142612576485,0.055360518395900726,0.010643169283866882
1778808092.8207035,0.2221380615234375,-9.739197235107422,0.04580474853515625,0.054642319679260254,0.046107929199934006,0.0645257979631424
1778808092.8433151,0.10538085937500001,-9.588909759521485,0.17109420776367187,0.023961130529642105,0.02744576893746853,0.11603587120771408
1778808092.86889,-0.07993377685546875,-9.530381469726564,0.12349319458007812,0.000876828096807003,0.00488885585218668,0.13980697095394135
1778808092.890186,-0.17393829345703127,-9.5561279296875,-0.013771362304687501,0.015321425162255764,-0.005459019914269447,0.14359799027442932
1778808092.9114158,-0.2028282165527344,-9.603579254150391,0.06780899047851563,0.022488301619887352,-0.01604803279042244,0.14987893402576447
1778808092.9321055,-0.25267456054687504,-9.610614624023437,0.22423370361328127,0.002261260524392128,-0.018861688673496246,0.1737339049577713
1778808092.9535892,-0.29294082641601565,-9.63172073364258,0.21420455932617188,-0.01314560417085886,-0.030115537345409393,0.1925102174282074
1778808092.977507,-0.28919860839843753,-9.656419372558593,0.09804611206054688,-0.023454789072275162,-0.0464305579662323,0.1941400170326233
1778808092.9991152,-0.28336074829101565,-9.648036804199219,-0.08038284301757813,-0.0114985266700387,-0.056037381291389465,0.1861630529165268
1778808093.0204165,-0.3430865478515625,-9.839488677978515,-0.08652008056640625,0.009924430400133133,-0.05455930531024933,0.20145824551582336
1778808093.044038,-0.35685791015625,-9.935139770507813,0.08397537231445312,0.008095327764749527,-0.0724288821220398,0.2195279449224472
1778808093.0654316,-0.2912942504882813,-9.937834167480469,0.14340179443359377,-0.006459237076342106,-0.07982885837554932,0.24193760752677917
1778808093.0848489,-0.36793487548828124,-9.90145980834961,0.1621128845214844,-0.014952478930354118,-0.08414184302091599,0.24430321156978607
1778808093.1036918,-0.4812492370605469,-10.027198333740236,0.137713623046875,-0.005176075268536806,-0.06962145864963531,0.23401691019535065
1778808093.12657,-0.5980064392089844,-10.26984375,-0.03817062377929688,0.011000807397067547,-0.05337432771921158,0.2089601755142212
1778808093.1478944,-0.5345384216308594,-10.646460571289063,-0.20836669921875,-0.026310648769140244,-0.06227662414312363,0.13975393772125244
1778808093.1687188,-0.1886077880859375,-11.119327239990234,-1.1503578186035157,-0.2354031652212143,-0.16481821238994598,-0.013356129638850689
1778808093.1922379,-0.20402572631835938,-11.001821594238281,-1.3945001220703126,-0.15767386555671692,-0.2066563367843628,-0.11053977906703949
1778808093.2132227,-0.46178970336914066,-10.678643646240236,-0.858464813232422,-0.01509065367281437,0.0022745244204998016,-0.11944928020238876
1778808093.234968,-0.4736151123046875,-10.10069549560547,-0.5185217285156251,0.011579691432416439,0.2394876629114151,-0.05768725648522377
1778808093.2581372,-0.006586303710937501,-9.5465478515625,-1.0279124450683594,0.030468054115772247,0.2956618070602417,-0.010614869184792042
1778808093.2821395,0.2561174011230469,-9.559720458984376,-1.6699273681640625,0.011964009143412113,0.2938113808631897,0.02320241369307041
1778808093.30183,-0.000449066162109375,-9.310788116455079,-1.6717236328125,0.030726835131645203,0.3374037444591522,0.017512798309326172
1778808093.325606,-0.2604583740234375,-8.932824096679688,-1.3958473205566406,0.14769956469535828,0.4699787199497223,-0.006296391598880291
1778808093.3472307,-0.4363426208496094,-8.944050750732423,-0.7214996337890626,0.20063115656375885,0.6293061375617981,-0.012760302051901817
1778808093.3676078,-0.3031196594238281,-10.080337829589844,-0.15462844848632815,-0.03845389187335968,0.7484194040298462,0.07619186490774155
1778808093.3886359,-0.28889923095703124,-10.858120422363282,-0.781973876953125,-0.2100549191236496,0.6859140992164612,0.10483895987272263
1778808093.4092958,-0.6972500610351563,-11.205547943115235,-1.61184814453125,-0.12592026591300964,0.684102475643158,0.036061450839042664
1778808093.4297998,-1.3883628845214844,-11.024424591064454,-1.6419355773925781,0.14679160714149475,0.846760094165802,-0.05737479403614998
1778808093.451482,-1.2828323364257812,-10.11701156616211,-0.9039701843261719,0.31412649154663086,0.995962381362915,-0.07662560790777206
1778808093.4716094,-0.9885443115234376,-9.113797760009765,-0.3010240173339844,0.29812896251678467,1.0263242721557617,-0.032241590321063995
1778808093.4940636,-0.6673123168945313,-8.748706970214844,-0.4876858520507813,0.2615809440612793,1.0122058391571045,0.022939709946513176
1778808093.5148122,-0.6539900207519531,-9.100625152587892,-0.5845344543457032,0.23746922612190247,1.024503469467163,0.049493029713630676
1778808093.535806,-0.7583230590820312,-9.542057189941406,-0.4477189636230469,0.21347153186798096,1.068865180015564,0.05180027708411217
1778808093.556016,-0.8891510009765625,-9.739795989990235,-0.35685791015625,0.19461537897586823,1.1337171792984009,0.02767455205321312
1778808093.57676,-0.9033714294433595,-9.66584976196289,-0.3607498168945313,0.1505393534898758,1.1501902341842651,-0.03491015359759331
1778808093.5970974,-0.8649014282226563,-9.642198944091797,-0.4819976806640625,0.1475924700498581,1.125454068183899,-0.07494409382343292
1778808093.616124,-0.9463320922851562,-9.796977081298829,-0.6873706054687501,0.16135117411613464,1.1578909158706665,-0.07411067187786102
1778808093.6360893,-1.1175759887695313,-9.881102142333985,-0.6572831726074219,0.16147935390472412,1.2272846698760986,-0.062352243810892105
1778808093.6569152,-1.213077392578125,-9.72572525024414,-0.6584806823730469,0.18873511254787445,1.2885700464248657,-0.05568437650799751
1778808093.6770825,-1.1987072753906252,-9.521699523925781,-0.5766009521484375,0.21360629796981812,1.3171693086624146,-0.02928038313984871
1778808093.6975148,-1.2629237365722656,-9.500144348144532,-0.5983058166503906,0.2361895740032196,1.3194586038589478,-0.007133388891816139
1778808093.716794,-1.3308824157714845,-9.58726318359375,-0.5662724304199219,0.2240779548883438,1.3006545305252075,0.012067511677742004
1778808093.7368548,-1.5679893493652344,-9.605525207519532,-0.5739065551757813,0.1771940439939499,1.3095955848693848,0.04035359248518944
1778808094.83722,-0.9584568786621094,-9.845027160644532,-1.016536102294922,-0.09627960622310638,-0.5588666200637817,0.1339561641216278
1778808094.893641,-0.6822811889648438,-10.241402893066407,-0.4273612976074219,-0.053711894899606705,-0.5753554105758667,0.11406935751438141
1778808094.9215653,-0.9864486694335938,-10.232571258544922,-0.7015910339355469,-0.07155301421880722,-0.6045932173728943,0.14906592667102814
1778808094.9427183,-1.2662168884277345,-10.042616271972657,-0.9990225219726563,-0.00827548187226057,-0.5667310357093811,0.13781768083572388
1778808094.964923,-1.4603631591796875,-9.730215911865235,-0.9854008483886719,0.04023776948451996,-0.5132558345794678,0.11896637827157974
1778808094.987232,-1.3965957641601563,-9.42440185546875,-0.7060816955566407,0.0283682718873024,-0.49228039383888245,0.12492629885673523
1778808095.0094457,-1.4109658813476562,-9.064101104736329,-0.7384144592285157,-0.02410808578133583,-0.5339986085891724,0.13010656833648682
1778808095.0306067,-1.6473243713378907,-9.233249359130859,-0.4483177185058594,-0.05553482845425606,-0.5336276888847351,0.11555194109678268
1778808095.0509205,-1.8880238342285158,-9.671238555908204,-0.28919860839843753,-0.08547838777303696,-0.45558962225914,0.08932018280029297
1778808095.0715277,-1.964963836669922,-9.921518096923828,-0.2591111755371094,-0.11790524423122406,-0.37872394919395447,0.05161024257540703
1778808095.1288478,-1.4314732360839844,-10.315049743652343,-0.6578819274902344,-0.1823142021894455,-0.44251689314842224,-0.05724719911813736
1778808095.1510224,-1.4304254150390625,-9.977351989746094,-0.5719606018066407,-0.1822301596403122,-0.3481442928314209,-0.0501895435154438
1778808095.1722832,-1.4051280212402344,-9.308692474365236,-0.3975732421875,-0.19629696011543274,-0.24086694419384003,-0.02081853151321411
1778808095.1927624,-1.3546829223632812,-8.856931915283203,-0.4631369018554688,-0.1749398112297058,-0.17367781698703766,-0.0021135914139449596
1778808095.2126362,-1.3443544006347656,-8.859326934814453,-0.628692626953125,-0.14576013386249542,-0.09666722267866135,0.022791139781475067
1778808095.2333155,-1.3653108215332033,-9.179960174560547,-0.5471122741699219,-0.12972591817378998,-0.03497131168842316,0.03057834692299366
1778808095.255063,-1.431024169921875,-9.545799407958985,-0.4390370178222657,-0.09927965700626373,0.03073006682097912,0.0226722564548254
1778808095.276511,-1.5215858459472658,-9.704619140625,-0.3266207885742188,-0.08266125619411469,0.10387846827507019,0.003819814883172512
1778808095.3255608,-1.6546591186523438,-9.629176025390626,-0.41314086914062503,-0.07219075411558151,0.14334912598133087,-0.01884954236447811
1778808095.348015,-1.6863931274414063,-9.838590545654297,-0.29488677978515626,0.1081952452659607,0.28989148139953613,-0.14962220191955566
1778808095.3693335,-1.4630575561523438,-9.813592529296875,-0.06571334838867188,0.16003142297267914,0.33413416147232056,-0.16502059996128082
1778808095.3923023,-1.1478131103515625,-9.748777313232422,0.07828720092773438,0.2208651900291443,0.37134960293769836,-0.15815772116184235
1778808095.4132862,-0.9936337280273438,-9.833201751708986,0.2854563903808594,0.2566997706890106,0.4262821674346924,-0.13656693696975708
1778808095.4390695,-1.2193643188476564,-10.69810317993164,-0.6328839111328125,-0.09124531596899033,0.49254804849624634,-0.06907105445861816
1778808095.464919,-1.4292279052734376,-10.761421508789063,-2.7355613708496094,-0.04721928760409355,0.5450587272644043,-0.23346352577209473
1778808095.5194106,-0.05134323120117188,-9.949659576416016,-0.501606903076172,0.16387861967086792,0.7753031253814697,-0.3280942738056183
1778808095.546275,0.6089337158203125,-10.045909423828126,-1.08494384765625,0.01324828527867794,0.810038685798645,-0.11794766783714294
1778808095.5677667,0.34637969970703125,-10.330467681884766,-1.5512242126464844,0.08305548876523972,0.899402379989624,-0.04506566375494003
1778808095.5898085,-0.18336868286132812,-10.099198608398439,-1.2229568481445312,0.14129336178302765,0.9675463438034058,-0.030629465356469154
1778808095.6117573,-0.3430865478515625,-9.543404388427735,-0.8411009216308594,0.1534644216299057,0.9680806398391724,-0.04983903840184212
1778808095.6369786,-0.3541635131835938,-8.879534912109376,-0.8054750061035156,0.1223893016576767,0.9360349178314209,-0.07446876168251038
1778808095.65768,-0.33141082763671875,-9.06035888671875,-1.0109976196289063,0.12120114266872406,0.9407890439033508,-0.10792478173971176
1778808095.678041,-0.20791763305664063,-9.464368743896484,-1.0794053649902344,0.10119299590587616,0.9400396943092346,-0.13527096807956696
1778808095.7001832,0.013022918701171875,-9.70312225341797,-1.0100994873046876,0.03264051303267479,0.913386881351471,-0.13525201380252838
1778808095.7192338,0.178428955078125,-9.862989807128907,-0.9294172668457031,-0.03139115497469902,0.8669410943984985,-0.12689167261123657
1778808095.7807586,0.09565109252929688,-9.761800231933595,-1.3548326110839843,0.022004330530762672,0.9481090903282166,-0.13198675215244293
1778808095.8018348,0.32213012695312504,-9.655970306396485,-1.0900332641601562,-0.015506266616284847,0.9824250340461731,-0.09047244489192963
1778808095.821946,0.40116577148437504,-9.637259216308594,-1.0810519409179689,-0.0064093489199876785,0.9873015880584717,-0.057551059871912
1778808095.8468924,0.3838018798828125,-9.681716766357422,-0.9969268798828126,0.007938424125313759,1.0047390460968018,-0.04748712107539177
1778808095.8683636,0.2806663513183594,-9.709708557128907,-0.9773176574707032,0.008335250429809093,1.039861798286438,-0.032405298203229904
1778808095.8901918,0.26839187622070315,-9.711654510498047,-0.9189390563964844,0.02806089259684086,1.056627631187439,-0.040540456771850586
1778808095.9153376,0.37317398071289065,-9.68875213623047,-0.7473957824707032,0.04306997358798981,1.0129692554473877,-0.06179145351052284
1778808095.9377985,0.475411376953125,-9.80955093383789,-0.6319857788085937,0.09002243727445602,0.9977066516876221,-0.08344470709562302
1778808095.9947758,0.5093907165527344,-9.896071014404297,-0.4668791198730469,0.11168800294399261,1.009014368057251,-0.06913109123706818
1778808096.0170662,0.34682876586914063,-10.128238220214845,-0.8843609619140625,0.03738861531019211,0.9380900263786316,-0.009056568145751953
1778808096.0418205,0.3933819580078125,-10.036329345703125,-0.9907896423339845,0.07098930329084396,0.9064315557479858,0.007013746537268162
1778808096.0627887,0.5668711853027344,-9.87945556640625,-1.0208770751953125,0.13172593712806702,0.7940371632575989,0.019342651590704918
1778808096.0823517,0.602197723388672,-9.874964904785157,-1.0367440795898437,0.1395712047815323,0.7336077094078064,0.030591392889618874
1778808096.101416,0.6893165588378907,-9.91822494506836,-1.0536589050292968,0.15158109366893768,0.7164906859397888,0.03498378023505211
1778808096.1218448,0.8434959411621095,-9.794582061767578,-0.95561279296875,0.17438040673732758,0.6744506359100342,0.05383497104048729
1778808096.1447248,1.0036628723144532,-9.670639801025391,-0.7426057434082032,0.18494978547096252,0.6023773550987244,0.09144797176122665
1778808096.1657271,1.1186238098144532,-9.539961547851563,-0.6167175292968751,0.16323165595531464,0.5281208753585815,0.13874521851539612
1778808096.1853132,1.0538085937500001,-9.460027770996094,-0.6369255065917969,0.12494640052318573,0.4539664387702942,0.1646069437265396
1778808096.2074957,0.8878038024902344,-9.389524383544922,-0.801134033203125,0.12173894792795181,0.42780956625938416,0.1776563972234726
1778808096.229172,0.7469467163085938,-9.376052398681642,-0.8168513488769532,0.1470455378293991,0.4037034809589386,0.16997411847114563
1778808096.258639,0.7520361328125,-9.585616607666017,-0.7273374938964844,0.1857505589723587,0.3282662332057953,0.15969212353229523
1778808096.279534,0.9726773071289063,-9.703421630859376,-0.32362701416015627,0.14917676150798798,0.20476050674915314,0.16233447194099426
1778808096.3010347,1.0677296447753908,-9.685758361816406,-0.3059637451171875,0.10107848793268204,0.09571726620197296,0.16159579157829285
1778808096.3253753,1.082548828125,-9.818382568359375,-0.5035528564453126,0.049409687519073486,0.004927554167807102,0.15447309613227844
1778808096.3516283,1.0139913940429688,-10.044113159179688,-0.781824188232422,0.027909444645047188,-0.04255489632487297,0.1665877252817154
1778808096.3725324,0.7551795959472657,-10.021510162353517,-0.9840536499023438,0.052717968821525574,-0.014367458410561085,0.17246204614639282
1778808096.39292,0.5899232482910156,-9.860445098876953,-0.8572673034667969,0.025437161326408386,-0.01143881119787693,0.17533670365810394
1778808096.4127822,0.49472122192382817,-9.690548400878907,-1.0090516662597657,0.018147064372897148,-0.006509108003228903,0.1761731654405594
1778808096.4330254,0.39308258056640627,-9.778116302490234,-1.1371852111816407,0.022159047424793243,0.0020422786474227905,0.17156746983528137
1778808096.4595375,0.128133544921875,-9.760902099609375,-0.810714111328125,0.029775559902191162,0.06841575354337692,0.1782882958650589
1778808096.4865983,-0.11301498413085938,-9.653425598144532,-0.4770579528808594,0.04383884370326996,0.10365813970565796,0.18646201491355896
1778808096.5098484,-0.43484573364257817,-9.935139770507813,0.16181350708007813,0.015640441328287125,0.09142343699932098,0.165114164352417
1778808096.5310922,-0.49786468505859377,-10.74974578857422,0.08846603393554688,-0.1279098093509674,0.10760471969842911,0.18794581294059753
1778808096.5570302,-0.9380992126464844,-11.11333969116211,-0.9780661010742188,-0.1343814879655838,0.08328815549612045,0.19670240581035614
1778808096.577987,-1.7094451904296877,-10.78192886352539,-0.6445596313476563,0.09172500669956207,0.20106342434883118,0.18073490262031555
1778808096.5998912,-1.9338285827636719,-9.904752960205078,0.22543121337890626,0.20701120793819427,0.3562858998775482,0.18820331990718842
1778808096.6202524,-1.6063096618652344,-8.939709777832032,0.4432283020019531,0.23939478397369385,0.40151429176330566,0.20563305914402008
1778808096.6410687,-1.2255015563964844,-8.472680969238281,0.35401382446289065,0.21834547817707062,0.38400599360466003,0.23198765516281128
1778808096.6610818,-1.2865745544433593,-8.877289581298829,0.4698728942871094,0.1475706547498703,0.37066370248794556,0.2701044976711273
1778808096.6858602,-1.5408956909179687,-9.665251007080078,0.4221221923828125,0.09833692014217377,0.40251103043556213,0.29426097869873047
1778808096.7101257,-2.2237756347656252,-10.399025115966797,0.34248779296875004,0.025816623121500015,0.4314606487751007,0.25992485880851746
1778808096.730815,-2.442919921875,-10.439441070556642,0.06780899047851563,0.02327112667262554,0.41199424862861633,0.18268060684204102
1778808096.7529733,-2.481988677978516,-10.186766510009766,-0.13172607421875002,0.07384784519672394,0.379890501499176,0.1068757027387619
1778808096.7765093,-2.2540127563476564,-9.621092834472657,0.1538800048828125,0.1476181000471115,0.43061232566833496,0.07218854129314423
1778808096.7969007,-1.9868183898925782,-9.188941497802736,0.44457550048828126,0.1529683768749237,0.45009711384773254,0.11304864287376404
1778808096.8185525,-1.7926721191406252,-9.052275695800782,0.5763015747070312,0.10158282518386841,0.4446624517440796,0.16828401386737823
1778808096.8406508,-1.646426239013672,-9.196425933837892,0.41344024658203127,0.049228131771087646,0.39453527331352234,0.20037589967250824
1778808096.862723,-1.659598846435547,-9.450148315429688,0.24938140869140626,0.0047516049817204475,0.3606710433959961,0.19590641558170319
1778808096.8833685,-1.743274841308594,-9.65866470336914,0.27572662353515626,-0.027535060420632362,0.34793010354042053,0.17622634768486023
1778808096.9070897,-1.892963562011719,-9.579179992675781,0.23935226440429688,-0.02769555151462555,0.35811808705329895,0.1308116614818573
1778808096.9305792,-1.9261944580078125,-9.425599365234376,0.4149371337890625,-0.05810263007879257,0.3368432819843292,0.11636918783187866
1778808096.9515755,-1.8447637939453125,-9.549990692138673,0.4243675231933594,-0.0473092719912529,0.32953089475631714,0.09289539605379105
1778808096.975199,-1.6423846435546876,-9.676178283691407,0.19878662109375,-0.02952982485294342,0.31859704852104187,0.03706352040171623
1778808096.9948652,-1.475481719970703,-9.730066223144531,0.3507206726074219,-0.060604922473430634,0.28622713685035706,-0.005948660895228386
1778808097.0143354,-1.4587165832519533,-9.756710815429688,0.40670425415039063,-0.07226387411355972,0.27828410267829895,-0.01471886970102787
1778808097.0331023,-1.453926544189453,-9.784253540039064,0.4992118835449219,-0.06997960805892944,0.28118330240249634,-0.009893801994621754
1778808097.053548,-1.3503419494628908,-9.695188751220703,0.48798522949218753,-0.05575363337993622,0.2889159917831421,0.009067961946129799
1778808097.0794144,-1.475182342529297,-9.664951629638672,0.2281256103515625,-0.027310360223054886,0.3196547031402588,0.027550099417567253
1778808097.1005118,-1.5175442504882812,-9.781259765625,0.149688720703125,-0.01029442809522152,0.339591920375824,0.00484447693452239
1778808097.1207452,-1.48730712890625,-9.672436065673828,0.11960128784179688,-0.0358654148876667,0.34331390261650085,-0.006815832108259201
1778808097.1420248,-1.5214361572265627,-9.62842758178711,0.11271560668945313,-0.06571677327156067,0.33719632029533386,-0.016148628666996956
1778808097.16801,-1.593735809326172,-9.687105560302735,0.22947280883789065,-0.045785367488861084,0.3227318227291107,-0.02971293032169342
1778808097.1921933,-1.5600558471679689,-9.767638092041016,0.31748977661132816,-0.03488816320896149,0.31863337755203247,-0.027941007167100906
1778808097.215039,-1.5322137451171876,-9.730365600585937,0.370030517578125,-0.09163471311330795,0.2703843414783478,-0.005916632246226072
1778808097.2367847,-1.6682807922363283,-9.67827392578125,0.21944366455078126,-0.13311535120010376,0.24548465013504028,-0.00334452698007226
1778808097.2593095,-1.7941690063476563,-9.628277893066407,0.1387614440917969,-0.13396207988262177,0.2267969250679016,-0.03281490132212639
1778808097.2806823,-1.794917449951172,-9.64474365234375,0.09834548950195313,-0.10167086869478226,0.2206835299730301,-0.05866913124918938
1778808097.3003335,-1.7944683837890625,-9.723479919433593,0.09280700683593751,-0.08177579939365387,0.22718305885791779,-0.06598788499832153
1778808097.3199809,-1.7200730895996095,-9.772428131103515,0.1490899658203125,-0.0638635903596878,0.22523890435695648,-0.07680630683898926
1778808097.3425987,-1.5829582214355469,-9.654922485351562,0.12978012084960938,-0.039129652082920074,0.2256520688533783,-0.08455280214548111
1778808097.3643456,-1.4206956481933595,-9.617799682617187,0.21315673828125,-0.02216918393969536,0.21898047626018524,-0.09168341010808945
1778808097.3856776,-1.439107360839844,-9.685159606933594,0.2375559997558594,-0.018824715167284012,0.22535237669944763,-0.09321015328168869
1778808097.410198,-1.4527290344238282,-9.708061981201173,0.21315673828125,0.01385483518242836,0.21721896529197693,-0.11066249012947083
1778808097.4314198,-1.4798226928710938,-9.925260314941406,0.3852987670898438,0.038510505110025406,0.21408358216285706,-0.12975451350212097
1778808097.4605117,-1.6097525024414063,-10.246043243408204,0.015867004394531252,-0.09650619328022003,0.21299584209918976,-0.14611251652240753
1778808097.4833882,-1.7456698608398438,-10.680439910888673,-1.153052215576172,-0.19995325803756714,0.22955961525440216,-0.21560627222061157
1778808097.5027041,-1.6262182617187502,-11.071426849365235,-1.47533203125,-0.13924874365329742,0.2496701180934906,-0.3016970455646515
1778808097.5238457,-1.2922627258300783,-10.995384979248048,-1.3117222595214844,-0.029091663658618927,0.26380664110183716,-0.35584715008735657
1778808097.5452673,-0.8367599487304688,-10.451266479492189,-0.5734574890136719,0.03857666254043579,0.3005877733230591,-0.3263477087020874
1778808097.5647707,-0.33829650878906253,-9.543853454589843,-0.1586700439453125,0.08389373123645782,0.32953912019729614,-0.21219569444656372
1778808097.5877082,-0.09804611206054688,-8.974886627197266,-0.18052459716796876,0.09358444064855576,0.38175925612449646,-0.08794388920068741
1778808097.6075358,-0.3823049926757813,-8.812923431396484,-0.2731819152832031,0.05509597063064575,0.3911983072757721,-0.023287883028388023
1778808097.628476,-0.6831793212890626,-9.00332748413086,-0.5490582275390625,0.02352648228406906,0.3677597641944885,-0.03472093120217323
1778808097.6509376,-0.9159452819824219,-9.397457885742188,-0.7640112304687501,0.0321841798722744,0.3390427529811859,-0.1105041429400444
1778808097.673271,-1.2076885986328125,-9.8435302734375,-0.7548802185058594,0.04372691363096237,0.29180315136909485,-0.2328483611345291
1778808097.6947386,-1.004860382080078,-10.049352264404297,-0.7183561706542969,0.06471654772758484,0.2820836901664734,-0.2604694068431854
1778808097.71479,-0.7912545776367188,-10.09351043701172,-0.6460565185546875,0.054064277559518814,0.2653556168079376,-0.24811889231204987
1778808097.73512,-0.5839356994628907,-9.809251556396484,-0.7131170654296876,0.06713796406984329,0.24436140060424805,-0.2091311663389206
1778808097.7552369,-0.46418472290039064,-9.463320922851564,-0.7828720092773438,0.0848156213760376,0.239251971244812,-0.15311811864376068
1778808097.7758179,-0.3932322692871094,-9.363328857421875,-0.9443861389160156,0.09114570915699005,0.23384563624858856,-0.12011918425559998
1778808097.796457,-0.3249742126464844,-9.643995208740234,-1.0877879333496094,0.07832624018192291,0.22871962189674377,-0.11967924982309341
1778808097.8167639,-0.18217117309570313,-9.884844360351563,-1.1032058715820312,0.05887097865343094,0.24322311580181122,-0.13999858498573303
1778808097.8361971,0.0335302734375,-9.897717590332032,-1.0627899169921875,0.04273562878370285,0.24747630953788757,-0.14951962232589722
1778808097.8610733,0.32781829833984377,-9.736053771972657,-1.009500732421875,0.05409587174654007,0.23131684958934784,-0.13314686715602875
1778808097.8816235,0.2650987243652344,-9.821076965332031,-0.9755213928222657,0.04356815665960312,0.259876549243927,-0.12382660806179047
1778808097.9028306,0.18830841064453127,-9.735305328369142,-1.0505154418945313,0.03647772967815399,0.3047575056552887,-0.12215280532836914
1778808097.9237618,0.08846603393554688,-9.74009536743164,-1.0412347412109375,0.059347063302993774,0.3441777229309082,-0.12271177023649216
1778808097.9436607,0.0676593017578125,-9.849368133544923,-0.8364605712890626,0.09141433984041214,0.35799291729927063,-0.11537345498800278
1778808097.9628284,0.17663269042968752,-10.030042419433594,-0.60114990234375,0.09342864900827408,0.3321986198425293,-0.10677190870046616
1778808097.9821339,0.22498214721679688,-10.191257171630859,-0.49187713623046875,0.061089206486940384,0.27849557995796204,-0.08954896777868271
1778808098.0026627,0.15702346801757813,-10.246791687011719,-0.5451663208007813,0.04483882337808609,0.22916507720947266,-0.0859818086028099
1778808098.0222528,0.047601013183593756,-10.141111450195313,-0.7084767150878907,0.07064482569694519,0.20950257778167725,-0.09833867102861404
1778808098.0443244,0.08322692871093751,-9.792336730957032,-0.7212002563476563,0.06889473646879196,0.19096149504184723,-0.11988578736782074
1778808098.0651078,0.2932402038574219,-9.551188201904298,-0.6192622375488281,0.02939280867576599,0.13720977306365967,-0.1588263213634491
1778808098.0887241,0.5605842590332032,-9.444160766601563,-0.4656816101074219,-0.013171637430787086,0.08497434854507446,-0.17331385612487793
1778808098.1105516,0.6665638732910156,-9.47035629272461,-0.41314086914062503,-0.10674013197422028,0.05436612293124199,-0.1179160624742508
1778808098.1312366,0.5370831298828125,-9.737850036621094,-0.6237528991699219,-0.10577458143234253,0.06933228671550751,-0.093477763235569
1778808098.1527593,0.4053570556640625,-9.807155914306641,-0.7207511901855469,-0.06434419751167297,0.08380652219057083,-0.09332871437072754
1778808098.175374,0.3046165466308594,-9.745933227539062,-0.5495072937011719,-0.030077412724494934,0.11405496299266815,-0.07166808843612671
1778808098.1975036,0.39712417602539063,-9.571246490478517,-0.19654129028320313,0.01948084495961666,0.09630296379327774,-0.007045626174658537
1778808098.217153,0.3435356140136719,-9.636211395263672,0.020207977294921877,0.024417143315076828,0.053272832185029984,0.05649074912071228
1778808098.2381911,0.30386810302734374,-9.754764862060547,-0.0820294189453125,0.06100881099700928,-0.032200198620557785,0.07038866728544235
1778808098.25944,0.2233355712890625,-9.768236846923829,0.01466949462890625,0.062424346804618835,-0.12695538997650146,0.05373533442616463
1778808098.2805104,0.23082000732421876,-9.767937469482423,0.11451187133789063,0.04132229834794998,-0.21541336178779602,0.048308491706848145
1778808098.3031006,0.3523672485351563,-9.75012451171875,0.0143701171875,0.05105616897344589,-0.29577913880348206,0.053696416318416595
1778808098.3247027,0.46598098754882816,-9.75865676879883,0.0401165771484375,0.05050968751311302,-0.394705206155777,0.05311664566397667
1778808098.3456197,0.5791456604003906,-9.86792953491211,-0.07304809570312501,0.04507552087306976,-0.4981187880039215,0.05909472703933716
1778808098.366412,0.6611750793457032,-9.856253814697267,0.004340972900390625,0.06588153541088104,-0.5192282795906067,0.08998893201351166
1778808098.3870478,0.650247802734375,-9.72138427734375,0.11900253295898439,0.08528006076812744,-0.5212686061859131,0.13295768201351166
1778808098.4085402,0.6833290100097656,-9.658814392089845,0.16196319580078125,0.11167377233505249,-0.5280320048332214,0.17972218990325928
1778808098.4279678,0.6575825500488282,-9.728269958496094,0.4474195861816406,0.125035360455513,-0.5634526610374451,0.2292982041835785
1778808098.4493477,0.5721102905273437,-9.92106903076172,0.5923182678222657,0.16952228546142578,-0.6525761485099792,0.26112866401672363
1778808098.4700704,0.29788055419921877,-10.142758026123047,0.544866943359375,0.18319135904312134,-0.7071177959442139,0.27866917848587036
1778808098.4914675,-0.1776805114746094,-10.88581283569336,0.2496807861328125,-0.05919351428747177,-0.7288440465927124,0.29526767134666443
1778808098.511167,-0.6700067138671876,-10.926827545166017,-1.6136444091796875,-0.28780028223991394,-0.8901393413543701,0.30194368958473206
1778808098.532223,-1.2349319458007812,-10.102791137695313,-2.0998333740234374,-0.06346640735864639,-0.9822329878807068,0.13778704404830933
1778808098.553917,-2.020049285888672,-8.578211517333985,1.43701171875,0.22429867088794708,-0.5410373210906982,0.15643660724163055
1778808098.5759356,-1.465602264404297,-8.176896057128907,2.0513342285156253,0.16326162219047546,-0.38525113463401794,0.2788199186325073
1778808098.5968537,-1.1546987915039064,-8.862620086669923,1.2160711669921875,0.008694552816450596,-0.6521302461624146,0.30732205510139465
1778808098.6191442,-1.234632568359375,-10.10353958129883,0.0796343994140625,-0.22709453105926514,-0.9190179705619812,0.25029903650283813
1778808098.6398072,-1.9345770263671875,-11.286679229736329,-0.7911048889160157,-0.28023743629455566,-0.8940215706825256,0.1659177988767624
1778808098.6602314,-2.5845254516601566,-11.529624023437501,-1.0024653625488282,-0.16914154589176178,-0.7100405693054199,0.007957473397254944
1778808098.6813369,-2.408790893554688,-10.111622772216798,-0.4628375244140625,0.010845530778169632,-0.6995239853858948,-0.11671814322471619
1778808098.7040095,-1.9838246154785157,-8.05250473022461,0.7200027465820313,-0.0548795722424984,-0.8159049153327942,0.08964411914348602
1778808098.726575,-1.7639318847656251,-7.709418182373048,0.7237449645996095,-0.16441355645656586,-0.9813796877861023,0.332053005695343
1778808098.7471075,-1.8163229370117189,-8.230783996582032,0.9289682006835938,-0.2842128574848175,-1.098585844039917,0.5025739669799805
1778808098.7675319,-2.006427612304688,-8.586444396972656,1.2885205078125002,-0.3526221513748169,-1.2623652219772339,0.5332875847816467
1778808098.7912822,-2.2375469970703126,-8.128396911621094,1.3419593811035158,-0.3434293270111084,-1.4249179363250732,0.7561513781547546
1778808098.8113544,-1.5283218383789063,-11.36242172241211,0.9386979675292969,-0.32105234265327454,-1.4414252042770386,0.4017144739627838
1778808098.8331351,-2.5602758789062503,-10.303224334716797,0.55803955078125,-0.5390641093254089,-1.3222042322158813,0.4028785228729248
1778808098.8549619,-1.6732205200195314,-9.421258392333986,0.4195774841308594,-0.6493959426879883,-1.3246150016784668,-0.14298361539840698
1778808098.8780866,-0.8333171081542969,-8.367000732421875,0.6249504089355469,-0.644051194190979,-1.346874475479126,-0.2326628714799881
1778808098.8985949,-0.32063323974609376,-8.030051422119142,0.4017645263671875,-0.8063421249389648,-1.3246896266937256,-0.15250566601753235
1778808098.9211106,-0.31719039916992187,-6.865922241210938,0.030835876464843752,-0.8456966876983643,-1.5535281896591187,0.0014809728600084782
1778808098.9763954,-1.2461585998535156,-6.151308288574219,-0.7027885437011719,-1.700529932975769,-1.452148199081421,0.3581565320491791
1778808098.9968972,-1.3269905090332033,-6.267167358398438,-1.5152989196777344,-1.7599737644195557,-1.1739387512207031,0.3734350800514221
1778808099.0189521,0.5471122741699219,-5.6751484680175786,-2.1405487060546875,-1.696688175201416,-1.0488595962524414,0.5074353218078613
1778808099.0432882,-1.4672488403320314,-3.553610229492188,-0.052989807128906254,-2.519002676010132,-1.56275475025177,0.7366031408309937
1778808099.0667498,-4.4846740722656255,-3.878584442138672,-1.708547058105469,-2.276212215423584,-1.109865665435791,0.35874050855636597
1778808099.0890243,-4.054319000244141,0.904119873046875,0.31150222778320313,-1.6110460758209229,-0.9916159510612488,-0.02000848948955536
1778808099.1157746,-0.5858816528320313,2.654579772949219,1.289418640136719,-0.8803443908691406,-1.7261650562286377,0.06830344349145889
1778808099.1369224,0.38470001220703126,-3.6878810119628906,-0.9244775390625001,-0.32510656118392944,-2.169572114944458,-0.20249295234680176
1778808099.1581628,-0.5656736755371095,-9.114546203613282,-2.3975642395019534,-0.42090797424316406,-2.3207855224609375,-0.43423908948898315
1778808099.1813152,-2.160008239746094,-12.74434799194336,-3.5848951721191407,-1.2174172401428223,-2.135124921798706,-0.15766151249408722
1778808099.2031715,-2.1653970336914066,-9.039552154541017,-3.473377075195313,-1.0931668281555176,-2.206923723220825,-0.13730931282043457
1778808099.226723,-4.544399871826172,-8.620274047851563,-3.529809722900391,-0.6208930015563965,-2.0421864986419678,-0.46805939078330994
1778808099.2465837,-6.065536651611328,-9.116342468261719,-4.532275085449219,-0.4891889989376068,-1.9019367694854736,-1.0764129161834717
1778808099.2666476,-3.472478942871094,-10.418634338378906,-4.946463775634766,-0.8718334436416626,-1.9976391792297363,-1.306447982788086
1778808099.29091,-1.1401789855957032,-10.810519409179689,-6.960226135253906,-0.9917681217193604,-1.9028955698013306,-0.9288927912712097
1778808099.3117118,-0.18157241821289063,-11.147768096923828,-6.34919677734375,-0.88275545835495,-2.033689498901367,-0.38930609822273254
1778808099.3325024,-2.698887634277344,-9.118887176513672,-5.817352752685547,-0.8512373566627502,-2.0065531730651855,-0.2990070581436157
1778808099.3539062,-4.597689056396485,-11.713142395019531,-5.1696496582031255,-1.1323976516723633,-1.7319279909133911,-0.28800341486930847
1778808099.3760517,-4.545447692871094,-12.934153289794923,-6.642736358642578,-1.2073403596878052,-1.5365333557128906,-0.19919316470623016
1778808099.3964493,-4.116290130615234,-11.335926818847657,-7.539371795654297,-1.119463324546814,-1.4448925256729126,0.3381364941596985
1778808099.4202728,-5.614973602294922,-10.421927490234376,-7.591912536621094,-1.1793067455291748,-1.3546559810638428,0.650133490562439
1778808099.4433649,-6.045178985595704,-10.49871780395508,-6.006708984375,-1.3413093090057373,-1.2467050552368164,0.9178174734115601
1778808099.464907,-5.785169677734375,-10.16730697631836,-7.05333251953125,-1.4995875358581543,-1.353034257888794,1.1601399183273315
1778808099.4866834,-4.434977416992187,-7.7884538269042976,-6.2033999633789065,-1.8646955490112305,-1.655044674873352,2.118396043777466
1778808099.5074425,-7.981402587890625,-10.180928649902345,-8.384214935302735,-1.863560438156128,-1.1212003231048584,2.5508580207824707
1778808100.53865,-10.326126708984376,-2.4096890258789063,0.0999920654296875,0.2703111171722412,0.8025413155555725,0.18637335300445557
1778808100.5642025,-9.50583251953125,-1.6410374450683594,1.2005035400390625,0.2872520089149475,0.7015060186386108,-0.05762750282883644
1778808100.5839977,-10.174192657470703,-2.4102877807617187,0.6712042236328125,0.43026530742645264,0.7687904834747314,-0.211589977145195
1778808100.6041334,-10.094408569335938,-2.465223541259766,-0.21899459838867188,0.4922994375228882,0.9069378972053528,-0.2086704671382904
1778808100.6263402,-9.567204895019533,-1.6437318420410156,-0.5953120422363282,0.46593567728996277,0.949690043926239,-0.14390209317207336
1778808100.6486328,-9.470655670166016,-1.2163705444335937,-0.7743397521972657,0.38040193915367126,0.86643385887146,-0.2369636446237564
1778808100.6716459,-9.148226165771485,-3.3905992126464843,-1.3843212890625,0.39607298374176025,0.8142312169075012,-0.2917030155658722
1778808100.6937273,-8.698411560058593,-3.6811450195312503,-2.0255877685546877,0.40697523951530457,0.9284529089927673,-0.26538774371147156
1778808100.714912,-8.81651596069336,-2.7643016052246097,-1.8916163635253906,0.3822711706161499,0.9866101741790771,-0.26700925827026367
1778808100.7366533,-9.388626251220703,-2.9322523498535156,-2.013013916015625,0.36095577478408813,1.0711250305175781,-0.3145027458667755
1778808100.7880342,-9.276509399414063,-4.17736312866211,-2.049088897705078,0.24749667942523956,1.0330750942230225,-0.3645888864994049
1778808100.8122041,-8.77580062866211,-3.6453694152832035,-1.5564633178710938,0.02159060165286064,0.6197395324707031,-0.36625170707702637
1778808100.833023,-8.090226287841798,-4.640949096679687,-1.648970947265625,-0.008673448115587234,0.46718889474868774,-0.29334884881973267
1778808100.8560576,-7.765850830078126,-4.509522399902344,-2.5771907043457034,-0.1211739256978035,0.42169490456581116,-0.2172052264213562
1778808100.8789012,-7.3850427246093755,-3.929478607177735,-3.1439122009277347,-0.2130132019519806,0.36814942955970764,-0.03532016649842262
1778808100.899012,-8.986712036132813,-4.8562014770507815,-2.066602478027344,-0.40996912121772766,0.3018556237220764,0.018420293927192688
1778808100.9193485,-8.531957702636719,-4.529281311035157,-2.0516336059570315,-0.49340152740478516,0.22741051018238068,0.09573279321193695
1778808100.941943,-8.338709564208985,-3.930077362060547,-2.7150540161132812,-0.3465288281440735,0.21032840013504028,0.1846051812171936
1778808100.9649296,-8.355175323486328,-3.8901104736328125,-3.2653097534179687,-0.17845383286476135,0.18974894285202026,0.19815285503864288
1778808101.0149474,-9.404343566894532,-6.719526672363282,-2.5239015197753907,-0.22915323078632355,0.10005182027816772,-0.07371007651090622
1778808101.0386655,-9.538464660644532,-5.987399139404297,-2.4869284057617187,-0.10157221555709839,-0.053002405911684036,-0.18989278376102448
1778808101.0622106,-9.387428741455079,-5.10857666015625,-3.3332684326171877,-0.0974222719669342,-0.06428395956754684,-0.16937440633773804
1778808101.0826805,-9.07323211669922,-4.048331451416016,-3.643722839355469,-0.1376342624425888,-0.03547251224517822,-0.0830809623003006
1778808101.1038883,-9.365274810791016,-4.0231837463378906,-3.279829559326172,-0.08736191689968109,-0.09982357919216156,-0.09327591210603714
1778808101.1280208,-9.555529174804688,-4.276157684326172,-2.8195367431640626,-0.1460033357143402,-0.2567342221736908,-0.21218769252300262
1778808101.1497278,-9.513167266845704,-4.11224853515625,-2.9400361633300784,-0.2157338708639145,-0.4798086881637573,-0.3389284610748291
1778808101.1720638,-9.268426208496095,-4.165238342285156,-3.450774078369141,-0.17591410875320435,-0.5289579033851624,-0.3255029022693634
1778808101.2131507,-8.5023193359375,-3.502865753173828,-3.1891181945800784,-0.1563493013381958,-0.5889455080032349,-0.19550983607769012
1778808101.2326293,-8.61383743286133,-4.298311614990235,-2.9093499755859376,-0.062115076929330826,-0.6140751838684082,-0.23209446668624878
1778808101.2527566,-8.557105407714845,-4.521198120117187,-3.3554223632812503,0.08738281577825546,-0.5611391067504883,-0.2526742219924927
1778808101.278819,-8.115523681640626,-4.13425277709961,-2.810405731201172,0.10132555663585663,-0.4701022803783417,-0.13337254524230957
1778808101.298731,-8.102650451660157,-4.027674407958985,-2.1573138427734375,0.04020913317799568,-0.4772885739803314,-0.12371943145990372
1778808101.3205585,-7.953111419677735,-3.6417768859863284,-1.9052380371093751,0.0036606602370738983,-0.44683849811553955,-0.03034619241952896
1778808101.3428934,-8.198451232910157,-3.2382160949707033,-2.9235704040527346,0.1265418976545334,-0.3997836709022522,-0.012828067876398563
1778808101.3651187,-8.497678985595703,-3.347937927246094,-2.9928762817382815,0.18621914088726044,-0.35736289620399475,-0.05926819518208504
1778808101.3856022,-8.240513763427735,-4.011358337402344,-2.1077668762207034,0.10219614952802658,-0.3317473828792572,-0.008770722895860672
1778808101.4059365,-8.046666870117187,-4.173171844482422,-1.7642312622070313,0.04740556702017784,-0.289771169424057,0.07936804741621017
1778808101.4271996,-7.764803009033203,-3.8944514465332034,-1.2844789123535156,-0.061001021414995193,-0.23350371420383453,0.17011658847332
1778808101.4460664,-8.434809722900392,-3.81526611328125,-2.3812481689453127,0.06375040113925934,-0.11110921949148178,0.08078073710203171
1778808101.468065,-8.001311187744141,-3.882176971435547,-2.217638397216797,0.03961750119924545,0.03436053916811943,0.12138955295085907
1778808101.4879746,-7.575596466064454,-4.087100830078125,-1.7324972534179688,-0.05560839921236038,0.14177866280078888,0.21942785382270813
1778808101.5081632,-7.4306977844238284,-4.163442077636719,-1.07296875,-0.13737455010414124,0.214215487241745,0.3193735182285309
1778808101.5279496,-7.761809234619141,-4.089196472167969,-1.4888040161132814,-0.11885184794664383,0.37840715050697327,0.3697141110897064
1778808101.5482092,-8.690478057861329,-3.8107754516601564,-2.832110595703125,-0.03586190938949585,0.6580106616020203,0.3235136568546295
1778808101.5707257,-8.96979721069336,-3.5723213195800785,-3.3376094055175782,0.005943071097135544,0.9262663125991821,0.3231858015060425
1778808101.5945547,-9.028624877929689,-3.7027001953125,-3.140619049072266,0.039610639214515686,1.1333281993865967,0.3867470324039459
1778808101.6179125,-9.116641845703125,-4.060605926513672,-2.6533822631835937,0.03780346363782883,1.2529816627502441,0.5260489583015442
1778808101.6392298,-10.115215301513672,-3.316802673339844,-4.027824096679688,0.2511134445667267,1.3564404249191284,0.5272778868675232
1778808101.6602857,-10.425070953369142,-2.7809170532226566,-4.1242236328125,0.45526644587516785,1.4207780361175537,0.4302659332752228
1778808101.6866698,-8.999136199951172,-2.364782409667969,-3.244802398681641,0.3774559497833252,1.2535444498062134,0.48594358563423157
1778808101.7096663,-8.793314208984375,-1.717079315185547,-3.4157469177246096,0.4011384844779968,1.0736792087554932,0.7016306519508362
1778808101.7299213,-9.609566802978517,-1.6997154235839844,-3.6598892211914062,0.5172803401947021,0.8680456876754761,0.7758808732032776
1778808101.7540708,-10.833421783447266,-2.0261865234375,-3.7842805480957034,0.6650699973106384,0.8114764094352722,0.7166115045547485
1778808101.7820756,-10.663824462890625,-2.854563903808594,-1.9571800231933594,0.5297664403915405,0.5710790753364563,0.5571954846382141
1778808101.8065052,-10.196645965576172,-1.9929556274414064,-3.334016876220703,0.43757981061935425,0.1183384582400322,0.461458295583725
1778808101.8272233,-10.829529876708985,-1.6151412963867189,-3.3940420532226563,0.4340800344944,-0.09951505810022354,0.35181403160095215
1778808101.8472753,-10.503956909179688,-1.7543518066406252,-3.347039794921875,0.3685348331928253,-0.22108376026153564,0.21361754834651947
1778808101.8688474,-9.304501190185547,-1.8486557006835938,-3.6109410095214844,0.35853227972984314,-0.24934741854667664,0.16043567657470703
1778808101.8924365,-8.662486267089845,-1.8073416137695313,-3.066672821044922,0.18979811668395996,-0.3169616758823395,0.15633465349674225
1778808101.9132378,-8.243058471679689,-2.6303302001953126,-3.552562408447266,0.01729603111743927,-0.4723823070526123,0.09119518101215363
1778808101.9350061,-7.606132965087891,-3.266956329345703,-4.056414642333984,-0.04034435376524925,-0.5443513989448547,0.08958462625741959
1778808101.9572487,-7.608228607177735,-3.076252899169922,-3.8321809387207035,-0.21215836703777313,-0.476672500371933,0.164931058883667
1778808101.9829826,-8.433013458251953,-2.783910827636719,-3.8585261535644535,-0.24004310369491577,-0.449008584022522,0.09351973980665207
1778808102.0046275,-8.424930267333984,-1.908680877685547,-3.6184254455566407,-0.2982204854488373,-0.4427747428417206,0.17803862690925598
1778808102.025973,-9.012308807373048,-1.8526972961425783,-4.483626251220703,-0.32157713174819946,-0.35311025381088257,0.24616067111492157
1778808102.0469818,-9.718839569091797,-1.648970947265625,-5.234614562988281,-0.27634209394454956,-0.22920291125774384,0.21628263592720032
1778808102.069273,-9.473799133300782,-2.4409739685058596,-3.6283049011230473,-0.4080953299999237,-0.23175890743732452,0.14762958884239197
1778808102.093835,-10.04231689453125,-3.2386651611328126,-3.6068994140625,-0.3911435604095459,-0.3738069534301758,-0.008749560452997684
1778808102.1138196,-9.747130737304689,-3.416495361328125,-4.018094329833985,-0.37263190746307373,-0.3457540273666382,0.037183452397584915
1778808102.133968,-9.034313049316406,-2.9880862426757813,-4.832550659179688,-0.4502462148666382,-0.08255014568567276,0.23566149175167084
1778808102.155706,-8.309520263671875,-2.2567071533203125,-4.80964828491211,-0.4222226142883301,0.13638783991336823,0.2820773720741272
1778808102.1767735,-7.4724609375,-1.6353492736816406,-3.839365997314453,-0.3263852596282959,0.1421874761581421,0.2974747121334076
1778808102.1960852,-8.051756286621094,-2.908601531982422,-3.5453773498535157,-0.18505460023880005,0.22036820650100708,0.36258813738822937
1778808102.2161386,-9.571396179199219,-3.8911582946777346,-3.6453694152832035,-0.22115464508533478,0.4986727237701416,0.2692122459411621
1778808102.2378764,-9.24133255004883,-3.5293606567382816,-3.2024404907226565,-0.4645403027534485,0.7837148904800415,0.17321527004241943
1778808102.2610457,-8.187374267578125,-1.1476634216308594,-4.27989990234375,-0.20916621387004852,0.9838141798973083,0.32850754261016846
1778808102.2823434,-8.60665237426758,-0.8912466430664063,-4.558021545410156,-0.004151873756200075,1.0946972370147705,0.5177715420722961
1778808102.3033602,-9.697134704589844,-1.9220031738281251,-4.734953613281251,-0.09476114064455032,1.2853676080703735,0.47751203179359436
1778808102.3252301,-9.155860290527345,-3.512146453857422,-3.6375856018066406,-0.06267452239990234,1.2509669065475464,0.29128631949424744
1778808102.3456953,-8.113428039550781,-3.057841186523438,-3.0088929748535156,-0.12008962035179138,1.2162171602249146,0.37325578927993774
1778808102.3700314,-8.433761901855469,-2.4074436950683595,-3.0529014587402346,-0.20725226402282715,1.1530777215957642,0.35698866844177246
1778808102.3918526,-8.334817657470703,-0.9145980834960938,-5.0515452575683595,-0.04605728015303612,1.1942507028579712,0.3337453603744507
1778808102.4115057,-7.470365295410157,-1.2114308166503907,-3.340902557373047,-0.1684522032737732,0.9999759197235107,0.37983494997024536
1778808102.4353292,-7.671397247314453,-2.1212388610839845,-3.0921199035644533,-0.025987373664975166,0.8462195992469788,0.43211179971694946
1778808102.4561813,-8.56264389038086,-2.485132141113281,-3.8943017578125003,0.10651116073131561,0.8827430009841919,0.41595640778541565
1778808102.4773645,-8.110883331298828,-2.0733384704589843,-4.2538540649414065,-0.0035994541831314564,0.7784175276756287,0.2545074224472046
1778808102.4986556,-6.881639556884766,-1.828298034667969,-5.016218719482422,0.08180562406778336,0.597176730632782,0.17378506064414978
1778808102.5192351,-6.9272946166992195,-1.914668426513672,-3.6025584411621097,0.12447413802146912,0.4870961010456085,0.20291730761528015
1778808102.5401824,-6.185886383056641,-2.5078848266601566,-4.224066009521485,0.29049962759017944,0.4342400133609772,0.19051244854927063
1778808102.5612226,-6.455475769042969,-2.346819763183594,-4.756808166503906,0.40946707129478455,0.4412936866283417,0.13686871528625488
1778808102.5814211,-7.299869842529297,-1.6899856567382814,-4.903652801513672,0.3238815367221832,0.5753850936889648,0.010539437644183636
1778808102.6087267,-6.712042236328125,-0.980760498046875,-7.121590576171875,0.5235143899917603,0.5616756677627563,0.013926515355706215
1778808102.6305568,-6.97190185546875,-1.7920733642578126,-3.9115159606933596,0.492111474275589,0.5012599229812622,-0.07642120867967606
1778808102.6528208,-6.745572509765625,-0.8491841125488282,-4.333937530517578,0.4174571633338928,0.5457776188850403,0.1322273164987564
1778808102.6757357,-7.500303039550782,0.3710783386230469,-6.237379302978516,0.331330806016922,0.5350094437599182,0.32973241806030273
1778808102.6950889,-9.37934555053711,0.27153533935546875,-7.229366455078125,0.5787222981452942,0.4699742794036865,0.1911708563566208
1778808102.7176738,-9.14942367553711,-2.688559112548828,-5.450016632080079,0.5810691118240356,0.304665207862854,0.03372350335121155
1778808102.7389698,-6.810238037109375,-1.8089881896972657,-5.431754608154297,0.38562363386154175,0.10640444606542587,0.4385332763195038
1778808102.759719,-7.683821411132813,-0.50055908203125,-6.604416046142578,0.4288538992404938,0.05092430114746094,0.5896599292755127
1778808102.7805004,-7.760911102294922,-0.14085708618164064,-6.509064331054688,0.4909612536430359,0.06393501907587051,0.45847052335739136
1778808102.809828,-6.718029785156251,-1.1850856018066407,-6.836283874511719,0.6582034826278687,0.10484758764505386,0.4202530086040497
1778808102.8295257,-6.029611358642579,-2.1799168395996094,-5.60479476928711,0.5923528671264648,0.11347444355487823,0.5434842109680176
1778808102.8555768,-7.488178253173828,-1.79865966796875,-6.506819000244141,0.5785173177719116,0.25677716732025146,0.4968695044517517
1778808102.877499,-6.934479675292969,-0.741258544921875,-7.332352294921876,0.8187703490257263,0.2169804722070694,0.3869848847389221
1778808102.903967,-7.197632446289063,-1.082548828125,-6.855893096923828,0.8582194447517395,0.22826242446899414,0.3659602999687195
1778808102.926411,-8.079897766113282,-1.6363970947265625,-6.390959930419922,0.8026463389396667,0.2679895758628845,0.23329459130764008
1778808102.9482555,-7.915389862060548,-1.2882211303710938,-5.7613691711425785,0.6818919777870178,0.2595752477645874,0.05528299883008003
1778808103.2079222,-7.301366729736328,-1.2259506225585939,-6.170169067382813,0.7319434881210327,0.11432479321956635,0.02609916217625141
1778808103.2318754,-7.4359368896484375,-4.1324565124511725,-6.23228988647461,0.22697323560714722,-0.47758522629737854,-0.5213150978088379
1778808103.2527723,-7.348668365478516,-4.3119332885742185,-6.495143280029297,0.3813614845275879,-0.405782014131546,-0.5063499808311462
1778808103.2743535,-7.4290512084960945,-4.115841064453125,-6.22031478881836,0.5157722234725952,-0.29835841059684753,-0.5117985010147095
1778808103.2951229,-8.24455535888672,-4.394112396240234,-5.522615661621094,0.682099461555481,-0.1183682382106781,-0.7035728096961975
1778808103.316823,-7.842341766357422,-4.695735168457031,-5.181774444580078,0.707994282245636,-0.09807871282100677,-0.7684392333030701
1778808103.3367288,-7.8463833618164065,-4.783303070068359,-4.902006225585938,0.695243239402771,-0.11725632846355438,-0.7928041219711304
1778808103.3612754,-7.789501647949219,-4.707261199951172,-4.697381744384766,0.5598680973052979,-0.17014914751052856,-0.791325032711029
1778808103.3811603,-7.602390747070313,-4.42360107421875,-5.098846893310547,0.5061882734298706,-0.258070170879364,-0.7401463389396667
1778808103.4004965,-7.660619659423829,-4.74258773803711,-5.040617980957031,0.513737142086029,-0.3442370295524597,-0.7014133930206299
1778808103.4212723,-7.6685531616210945,-5.516927490234376,-4.520449676513672,0.5195162296295166,-0.41581404209136963,-0.6998176574707031
1778808103.4443145,-7.623197479248048,-6.053112487792969,-4.558021545410156,0.5230566263198853,-0.4794854521751404,-0.7031424641609192
1778808103.4652457,-7.2846015930175785,-5.61916488647461,-4.606520690917969,0.4281526803970337,-0.4594586193561554,-0.6656704545021057
1778808103.4867764,-6.864425354003907,-5.424270172119141,-4.767885131835937,0.39668625593185425,-0.4664890170097351,-0.6248732805252075
1778808103.509714,-6.769822082519531,-5.530998229980469,-4.491110687255859,0.4092879295349121,-0.5074567198753357,-0.615086019039154
1778808103.528975,-6.854396209716797,-5.2558703613281255,-4.129163360595704,0.39643582701683044,-0.49982425570487976,-0.5732361674308777
1778808103.5488715,-7.059619445800782,-4.772226104736329,-3.967050476074219,0.4159727692604065,-0.4363444447517395,-0.5244089365005493
1778808103.5693479,-6.975644073486328,-4.793481903076172,-3.875740356445313,0.4596307575702667,-0.37689894437789917,-0.4602818787097931
1778808103.5891438,-6.7844915771484375,-5.2594628906250005,-4.043541412353516,0.4464755356311798,-0.33580976724624634,-0.38346633315086365
1778808103.6101897,-7.035818939208985,-5.523962860107422,-4.070186004638672,0.42970919609069824,-0.3720889687538147,-0.4045659303665161
1778808103.6324372,-7.631430358886719,-5.432503051757813,-3.273692321777344,0.3896729648113251,-0.5169582366943359,-0.48323681950569153
1778808103.6545813,-7.787406005859375,-5.404810638427735,-3.0972093200683597,0.34292083978652954,-0.5523999333381653,-0.4697728753089905
1778808103.6765325,-7.344626770019532,-5.378465423583985,-2.689307556152344,0.15677931904792786,-0.650010883808136,-0.39779648184776306
1778808103.696933,-7.320377197265626,-5.472170562744141,-2.7857070922851563,0.044474054127931595,-0.7263957262039185,-0.38073357939720154
1778808103.7225862,-7.632029113769532,-5.35331771850586,-3.326382751464844,0.03258117288351059,-0.6542118191719055,-0.3704015910625458
1778808103.7446306,-7.012467498779297,-4.763544158935547,-3.5021173095703126,0.11467257887125015,-0.6155261397361755,-0.33857035636901855
1778808103.7652237,-6.448440399169923,-4.792284393310547,-3.1582823181152344,0.15174518525600433,-0.5964076519012451,-0.17033420503139496
1778808103.7860763,-6.342161407470703,-4.8190786743164065,-3.095113677978516,0.06537051498889923,-0.5525038838386536,-0.0499635711312294
1778808103.8084674,-6.0219772338867195,-4.637356567382812,-2.917882232666016,-0.020299673080444336,-0.5557402968406677,-0.014838915318250656
1778808103.8302064,-5.611381072998047,-4.272265777587891,-2.973416748046875,0.0655151754617691,-0.4824489951133728,0.09717636555433273
1778808103.8507812,-5.894741821289063,-4.840933227539063,-2.787653045654297,0.18973375856876373,-0.40518084168434143,0.39175695180892944
1778808103.8704069,-6.340514831542969,-5.532195739746094,-3.083587646484375,0.2281661182641983,-0.33486101031303406,0.4493691921234131
1778808103.8920877,-6.575376434326172,-6.073919219970703,-2.7487339782714844,0.09696655720472336,-0.27896368503570557,0.38947704434394836
1778808103.912923,-6.859485626220703,-6.123316497802735,-2.5674609375,-0.0010941741056740284,-0.18818698823451996,0.2971213161945343
1778808103.9370553,-6.521039428710938,-6.116730194091797,-3.053350524902344,0.1487482637166977,0.01542617566883564,0.3922595679759979
1778808103.9602497,-6.173611907958985,-6.732100524902344,-2.774779815673828,0.3566551208496094,0.16761867702007294,0.4654073417186737
1778808103.980248,-7.685917053222656,-7.271878051757813,-1.6299604797363283,0.176741823554039,0.2269742637872696,0.2097947895526886
1778808104.0019608,-9.379944305419922,-7.0645591735839846,-3.0457164001464845,0.23111505806446075,0.4576665759086609,-0.004089805297553539
1778808104.0232818,-10.215955810546875,-6.748416595458985,-3.577859802246094,0.43345269560813904,0.6966391801834106,-0.20839932560920715
1778808104.0442061,-7.998766479492188,-6.497837677001954,-2.365231475830078,0.38624307513237,0.5980069041252136,-0.14986756443977356
1778808104.0650227,-6.39754623413086,-5.804329833984375,-1.5816110229492188,0.19598911702632904,0.3614128530025482,0.041884660720825195
1778808104.0873697,-6.620283050537109,-5.579647064208984,-2.1083656311035157,0.1421947479248047,0.232906311750412,0.1088707372546196
1778808104.1109943,-8.006400604248046,-5.891298980712891,-3.1726524353027346,0.28472888469696045,0.3607208728790283,-0.08676651120185852
1778808104.1370575,-8.1861767578125,-6.428531799316406,-2.834355926513672,0.3609023094177246,0.44214463233947754,-0.2691013514995575
1778808104.1597733,-6.966513061523438,-5.428910522460938,-1.7510586547851563,0.16714301705360413,0.3784824013710022,-0.22314168512821198
1778808104.1811254,-7.100185089111329,-4.575684814453125,-1.9462527465820314,0.07442978769540787,0.2979685962200165,-0.18470147252082825
1778808104.2014506,-7.421566772460938,-4.408332824707031,-2.607876892089844,0.10635954141616821,0.2856151759624481,-0.20171312987804413
1778808105.283278,-2.9994625854492187,-6.791227569580078,-3.297492828369141,0.4026753008365631,0.13200713694095612,-0.10305310040712357
1778808105.3076262,-2.7159521484375,-6.755302276611329,-2.7161018371582033,0.3716447651386261,0.10524740070104599,-0.05592526122927666
1778808105.3294933,-2.796035614013672,-6.644083557128907,-2.924169158935547,0.3113735616207123,0.11487922072410583,0.02715485170483589
1778808105.3501344,-3.1323861694335937,-6.67491943359375,-3.29315185546875,0.32833579182624817,0.12244958430528641,0.08847571164369583
1778808105.3721633,-4.020189971923829,-7.523804168701172,-3.352727966308594,0.4757872521877289,0.1355772316455841,0.01104806549847126
1778808105.3936076,-4.12661865234375,-8.111033020019532,-2.8000772094726565,0.48013535141944885,0.13744476437568665,-0.06834032386541367
1778808105.4134107,-3.5007701110839844,-7.822283477783204,-2.4397764587402344,0.4099230170249939,0.11620847880840302,-0.017666045576334
1778808105.4339547,-2.993624725341797,-6.967261505126953,-2.4447161865234377,0.368754506111145,0.06666818261146545,0.06271959096193314
1778808105.4561877,-2.765948181152344,-6.553521881103516,-2.478695526123047,0.36054104566574097,-0.006436730269342661,0.12321557849645615
1778808105.4761622,-2.778971099853516,-6.9904632568359375,-2.635718994140625,0.3969937860965729,-0.07771614193916321,0.13558806478977203
1778808105.4964228,-2.961441650390625,-7.615413665771484,-2.5500970458984376,0.45786774158477783,-0.1655832827091217,0.07074306160211563
1778808105.5165377,-2.9831465148925784,-7.54955062866211,-2.24892333984375,0.5095319747924805,-0.24359893798828125,0.03928038850426674
1778808105.5448222,-4.440066833496094,-7.96343994140625,-4.300107879638672,0.9543351531028748,-0.3176620304584503,-0.1354176253080368
1778808105.586945,-2.416125640869141,-7.635471954345704,-1.477427673339844,0.5870307683944702,-0.5980878472328186,-0.0007500285282731056
1778808105.6070135,-3.4420921325683596,-8.64123046875,-3.297792205810547,0.6851780414581299,-0.7091333270072937,-0.05019225552678108
1778808105.626501,-3.368445281982422,-8.843609619140626,-2.538271636962891,0.46365612745285034,-0.8334725499153137,0.017949579283595085
1778808105.6465318,-3.7446130371093753,-9.11304931640625,-2.3595433044433594,0.14074037969112396,-0.969741940498352,0.11250297725200653
1778808105.667358,-4.9582891845703125,-9.372310180664064,-2.7749295043945312,-0.002853593323379755,-1.0277609825134277,0.02606213465332985
1778808105.693061,-4.852010192871094,-9.635163574218751,-1.9199075317382814,-0.2104734182357788,-1.2210639715194702,0.010611573234200478
1778808105.7177148,-5.261558532714844,-8.56503890991211,-1.9600241088867187,0.02581018954515457,-1.255983591079712,0.13822041451931
1778808105.7449472,-6.427334289550782,-7.0593200683593755,-0.7670050048828125,0.18351687490940094,-0.9334345459938049,0.1968287229537964
1778808105.769555,-6.368057556152344,-8.032147064208985,-0.7041357421875001,0.19194920361042023,-0.8530630469322205,0.04382440075278282
1778808105.818016,-6.219716033935547,-7.935597839355469,-1.8711090087890625,-0.37669289112091064,-0.7851378917694092,0.1986408531665802
1778808105.8434155,-5.999673614501954,-8.04202651977539,-1.1305989074707032,-0.4929315745830536,-0.9265664219856262,0.02632007747888565
1778808105.8659463,-6.045628051757813,-7.858508148193359,-0.6752458190917969,-0.43749597668647766,-0.9366075396537781,-0.06504666805267334
1778808105.887876,-5.859564971923828,-8.051905975341798,-0.6342311096191406,-0.2753842771053314,-0.8743995428085327,-0.05033549293875694
1778808105.9107463,-5.057233428955079,-7.7372602844238285,0.16495697021484376,-0.3815544843673706,-0.8620187044143677,0.21073861420154572
1778808105.9305995,-4.998106384277344,-7.641309814453125,0.2927911376953125,-0.42093271017074585,-0.989944577217102,0.27737098932266235
1778808105.9508402,-5.235063629150391,-7.848778381347657,-0.0197589111328125,-0.3537083864212036,-1.0468776226043701,0.2852531671524048
1778808105.975735,-5.743406524658203,-7.98065414428711,-0.5965095520019531,-0.3041797876358032,-0.8926282525062561,0.4375453591346741
1778808105.9942586,-5.858966217041016,-8.132139129638672,-0.3438349914550781,-0.1734960526227951,-0.7575334310531616,0.5459307432174683
1778808106.038084,-5.861660614013672,-7.6034385681152346,0.30147308349609375,0.05962022766470909,-0.7411942481994629,0.2381594479084015
1778808106.0619695,-5.742658081054688,-7.584428100585938,0.054636383056640626,-0.08996597677469254,-0.6256791949272156,0.24047733843326569
1778808106.0879898,-5.9303677368164065,-7.64056137084961,0.2501298522949219,-0.2341293841600418,-0.45855745673179626,0.22065560519695282
1778808106.1097286,-5.673950958251954,-7.883805541992188,0.5427713012695313,-0.1922036111354828,-0.20676560699939728,0.09032335132360458
1778808106.130282,-5.474565582275391,-8.264763336181641,0.19474502563476564,-0.3286084234714508,0.14157353341579437,-0.08219964802265167
1778808106.151927,-5.220244445800781,-7.766898651123047,0.22543121337890626,-0.5620507597923279,0.44309476017951965,-0.18210506439208984
1778808106.1729884,-5.6486535644531255,-6.9552864074707035,-0.00389190673828125,-0.579752504825592,0.26207292079925537,-0.09398442506790161
1778808106.193994,-5.601501617431641,-7.377408599853516,-0.9102571105957031,-0.30928587913513184,-0.08224605768918991,-0.013187789358198643
1778808106.214785,-5.500162353515625,-8.17944076538086,-0.945883026123047,-0.21382984519004822,-0.27260270714759827,-0.03907157853245735
1778808106.2365608,-5.575755157470703,-7.577243041992188,-0.2785707092285156,-0.3250125050544739,-0.18688063323497772,0.10559453070163727
1778808106.259057,-6.171965332031251,-7.921078033447266,-0.032931518554687504,-0.3632214069366455,-0.06999354064464569,0.2215711623430252
1778808106.2806723,-6.017935638427734,-8.024962005615235,-0.23201751708984375,-0.2720399498939514,-0.19868578016757965,0.3550322949886322
1778808106.3009138,-6.147416381835938,-7.746241607666016,-0.6276448059082032,-0.18378843367099762,-0.2973734140396118,0.513353168964386
1778808106.3202858,-6.538253631591798,-7.07054672241211,-0.7485932922363282,-0.12089354544878006,-0.264446884393692,0.6766449809074402
1778808106.3423574,-6.700516204833985,-7.261250152587891,-0.6027964782714844,-0.2640611529350281,-0.22113537788391113,0.7904470562934875
1778808106.5929766,-6.609056396484375,-7.168143768310547,-0.6851252746582032,-0.3833029270172119,-0.43750134110450745,0.7996494770050049
1778808106.6174235,-5.720204772949219,-7.963140563964844,-0.06271957397460938,-0.3940424621105194,-1.2214454412460327,-0.4910697937011719
1778808106.6385374,-5.654790802001953,-8.332422637939453,-0.13606704711914064,-0.3057495355606079,-1.0944432020187378,-0.40093913674354553
1778808106.6603212,-5.608836364746094,-8.599467315673829,0.04176315307617188,-0.31686538457870483,-1.0545716285705566,-0.36620596051216125
1778808106.6812968,-5.217699737548829,-8.786129150390625,0.10538085937500001,-0.35564321279525757,-1.068232774734497,-0.36970242857933044
1778808106.9317276,-5.087021484375001,-8.677904205322266,0.04700225830078125,-0.3644998371601105,-1.025576114654541,-0.35092979669570923
1778808106.9593053,-3.7250038146972657,-8.365054779052734,0.6204597473144532,-0.21624618768692017,-0.6712444424629211,-0.15039828419685364
1778808106.9816246,-3.63324462890625,-8.506211242675782,0.39712417602539063,-0.28276559710502625,-0.6474847793579102,-0.007263438310474157
1778808107.0072918,-3.47996337890625,-8.904083862304688,0.092208251953125,-0.3041749894618988,-0.688392162322998,0.036402348428964615
1778808107.028821,-3.2947984313964844,-9.494605865478515,0.34712814331054687,-0.3258971571922302,-0.7207987308502197,-0.01846100576221943
1778808107.0504234,-3.3795222473144535,-9.619595947265626,0.718505859375,-0.3570266366004944,-0.7530208826065063,-0.08044813573360443
1778808107.0714493,-3.6074981689453125,-9.225615234375,0.47720764160156254,-0.4862227737903595,-0.7763531804084778,-0.05579724162817001
1778808107.0930789,-3.5269656372070313,-9.182205505371094,0.07200027465820313,-0.5265337228775024,-0.8141661882400513,-0.08338887989521027
1778808107.113824,-3.6068994140625,-9.191935272216798,0.08996292114257813,-0.5532217621803284,-0.8344752192497253,-0.1296018362045288
1778808107.134536,-3.6051031494140626,-9.113797760009765,0.2273771667480469,-0.5175363421440125,-0.8211429119110107,-0.1616092324256897
1778808107.3928442,-3.6051031494140626,-8.957223358154298,0.46957351684570314,-0.45044025778770447,-0.7986823916435242,-0.14204107224941254
1778808107.419264,-3.916904754638672,-8.901389465332032,0.42032592773437505,-0.6917892098426819,-1.1073399782180786,0.061664894223213196
1778808107.4433267,-3.8287380981445316,-8.825197906494141,0.8431965637207032,-0.7163506150245667,-1.0960434675216675,0.08564549684524536
1778808107.464654,-3.8374200439453126,-8.689430236816406,0.8987310791015626,-0.7281914949417114,-1.1069049835205078,0.10366620123386383
1778808107.7294304,-4.195774841308594,-8.61638214111328,0.6487509155273438,-0.6865077614784241,-1.1101140975952148,0.16319973766803741
1778808107.9931214,-4.719984741210938,-10.713521118164063,0.45460464477539064,-1.1584019660949707,-1.3758260011672974,0.23842941224575043
1778808108.0179036,-5.3352053833007815,-8.225095825195313,0.4842430114746094,-0.819009006023407,-1.1989188194274902,0.14627784490585327
1778808108.0379305,-5.759123840332031,-8.679700469970703,-0.21450393676757815,-1.0284383296966553,-1.171600103378296,0.25058427453041077
1778808108.0595748,-6.132746887207031,-8.846304016113281,-0.9406439208984375,-1.0960192680358887,-1.234710454940796,0.15944471955299377
1778808108.0795763,-6.228547668457032,-8.97309036254883,-0.9607022094726563,-0.9112494587898254,-1.2831735610961914,-0.04039496183395386
1778808108.0995696,-6.078559570312501,-8.653954010009766,-0.10493179321289063,-0.8024260401725769,-1.271889567375183,-0.16360551118850708
1778808108.1200953,-5.749693450927735,-8.131839752197266,0.5403762817382812,-0.8525383472442627,-1.2415504455566406,-0.19778867065906525
1778808108.1429808,-5.254972229003907,-7.593259735107423,0.6177653503417969,-0.9234302639961243,-1.261033535003662,-0.17891865968704224
1778808108.1640062,-4.618944854736329,-6.350693664550781,0.3814068603515625,-1.0238770246505737,-1.3989840745925903,0.03269502893090248
1778808108.1854937,-5.131329345703125,-6.630910949707031,0.47720764160156254,-1.2640820741653442,-1.4519275426864624,0.19197040796279907
1778808108.208442,-7.323820037841797,-8.073910217285157,-1.611698455810547,-0.9943293929100037,-1.3675779104232788,-0.12106476724147797
1778808108.2343998,-6.463708648681641,-7.9625418090820315,-0.47181884765625004,-0.7450531125068665,-1.3774237632751465,-0.5430504679679871
1778808108.25623,-5.022655334472656,-7.419321441650391,0.7816744995117187,-0.8670646548271179,-1.476246953010559,-0.5146359205245972
1778808108.279459,-4.751419372558594,-7.003186798095704,1.1870315551757813,-0.9567978978157043,-1.5599855184555054,-0.43309763073921204
1778808108.3011494,-5.1588720703125,-6.874005432128906,1.0853929138183593,-1.0694069862365723,-1.6119543313980103,-0.3791517913341522
1778808108.325256,-5.531447296142578,-7.633825378417969,0.6135740661621094,-1.060311198234558,-1.7335147857666016,-0.3981937766075134
1778808108.3485498,-5.895939331054688,-8.434510345458985,0.9057664489746095,-1.0511335134506226,-1.7793768644332886,-0.40408986806869507
1778808108.3691351,-6.489455108642578,-8.83088607788086,1.2973521423339844,-1.205222487449646,-1.7843310832977295,-0.46289923787117004
1778808108.3909357,-6.334527282714844,-8.748856658935548,0.9846524047851563,-1.323960304260254,-1.8497769832611084,-0.5923754572868347
1778808108.4120977,-5.317841491699219,-8.723708953857422,0.5330415344238282,-1.1618232727050781,-1.97526216506958,-0.6207923293113708
1778808108.435727,-5.730533294677735,-9.12307846069336,1.1261082458496094,-1.1622276306152344,-2.0671210289001465,-0.6068981289863586
1778808108.455372,-6.049070892333985,-8.94539794921875,0.6881190490722656,-1.1778099536895752,-2.0655362606048584,-0.6438882946968079
1778808108.4773874,-5.831423492431641,-7.576644287109375,-0.0383203125,-1.2707446813583374,-2.127075672149658,-0.6085182428359985
1778808108.4989069,-7.175029449462891,-6.583609313964844,-1.6976197814941407,-1.9041669368743896,-2.0424246788024902,-0.4159599542617798
1778808108.520023,-6.628216552734376,-7.804470520019532,-7.486381988525391,-1.3287135362625122,-1.7670434713363647,-0.26583150029182434
1778808108.5454855,-4.1182360839843755,-8.516689453125,-2.8497738647460937,-0.6227800846099854,-2.2110512256622314,-0.5414576530456543
1778808108.8022015,-3.7220100402832035,-7.82258285522461,1.8654208374023438,-1.5783958435058594,-2.411031723022461,-0.25348731875419617
1778808108.8270218,-2.146835632324219,-4.462969207763672,-5.490881652832032,-3.5332729816436768,-2.0636937618255615,-0.1651160567998886
1778808108.8504028,-2.1462368774414062,-5.1063313293457036,-3.851939849853516,-3.6850175857543945,-2.4004814624786377,-0.48334211111068726
1778808108.8708274,-0.6749464416503906,-5.730682983398438,-1.7178277587890627,-3.381368637084961,-2.7087392807006836,-0.7641837000846863
1778808108.8940318,-0.3722758483886719,-5.975424041748047,-1.1335926818847657,-3.216019868850708,-2.9085693359375,-0.8845540881156921
1778808108.9140534,-3.3031809997558597,-5.244044952392579,-4.997507629394532,-3.1997787952423096,-2.4874701499938965,-0.6751894354820251
1778808108.9352665,-5.172493743896484,-4.184398498535156,-9.178014221191408,-3.841830253601074,-1.7842100858688354,-0.2735351324081421
1778808109.1942873,-7.178172912597657,-4.599635009765625,-12.636871490478516,-3.8241140842437744,-1.2513494491577148,-0.262607216835022
