timestamp,AccX,AccY,AccZ,GyroX,GyroY,GyroZ
1778956132.2342188,-0.5935157775878906,-9.819430389404298,0.15148498535156252,-0.052101098001003265,-0.0068030874244868755,-0.02352483756840229
1778956132.2568467,-0.7559280395507812,-9.876761169433594,0.1850152587890625,-0.057088036090135574,-0.005513647571206093,-0.030423203483223915
1778956132.277649,-0.9403445434570313,-9.839338989257813,0.08801696777343751,-0.054648611694574356,0.008459066040813923,-0.03780068829655647
1778956132.298151,-0.8044271850585938,-9.839488677978515,0.05239105224609375,-0.04441625997424126,0.013002889230847359,-0.051013700664043427
1778956132.3183975,-0.5078938293457032,-9.753866729736329,0.183218994140625,-0.0433925986289978,-0.0317920446395874,-0.039702996611595154
1778956132.3397758,-0.4207749938964844,-9.595346374511719,0.13082794189453126,-0.05039903149008751,-0.029327664524316788,-0.004429426975548267
1778956132.3605254,-0.6251000976562501,-9.684261474609375,0.20432510375976565,-0.06075769662857056,-0.07717704027891159,-0.013202410191297531
1778956132.3842337,-0.5517526245117188,-9.694140930175783,0.2213896179199219,-0.07733727991580963,-0.09893309324979782,0.0037475461140275
1778956132.405134,-0.7147636413574219,-9.81763412475586,0.13726455688476563,-0.09452426433563232,-0.0664432942867279,0.044306155294179916
1778956132.4270716,-1.0975177001953125,-10.085576934814453,-0.025596771240234375,-0.10022171586751938,0.04426293075084686,0.09065954387187958
1778956132.44975,-0.9095086669921876,-9.880503387451173,0.07544311523437501,-0.08499380946159363,0.0828348696231842,0.03540215268731117
1778956132.4733467,-0.36778518676757815,-9.741292877197266,0.21809646606445313,-0.11790571361780167,0.0470883883535862,-0.00525447353720665
1778956132.4923742,-0.28111541748046875,-9.571695556640625,0.07304809570312501,-0.1084834411740303,0.020694566890597343,0.02844650112092495
1778956132.5159879,-0.6120771789550782,-9.694739685058595,-0.23845413208007812,-0.06127701327204704,0.06719212234020233,0.04573094844818115
1778956132.5397232,-0.8720864868164063,-9.980196075439453,-0.03817062377929688,-0.07204306125640869,0.09207382798194885,-0.02528037503361702
1778956132.5607476,-0.8469387817382813,-10.014923858642579,-0.12424163818359375,-0.06704580783843994,0.09509262442588806,-0.0497465617954731
1778956132.5810277,-0.6436614990234375,-9.893675994873048,-0.27497817993164064,-0.03448203206062317,0.11506079137325287,-0.05350589007139206
1778956132.6040392,-0.4932243347167969,-9.72138427734375,-0.1526824951171875,-0.01392367109656334,0.08770439773797989,-0.045296426862478256
1778956132.6254056,-0.5312452697753907,-9.883497161865234,-0.07200027465820313,-0.041961461305618286,0.06532842665910721,-0.039023879915475845
1778956132.6461122,-0.6399192810058594,-9.820777587890625,-0.04266128540039063,-0.07290688902139664,0.04476701840758324,-0.03727152943611145
1778956132.665951,-0.6280938720703125,-9.675579528808594,-0.11211685180664063,-0.04508240520954132,-0.0003763134591281414,-0.059172552078962326
1778956132.6865861,-0.5846841430664063,-9.898765411376953,-0.13427078247070312,-0.05351225659251213,0.0005613383837044239,-0.046582989394664764
1778956132.7083702,-0.6253994750976563,-9.933942260742189,-0.03622467041015625,-0.0939723551273346,0.010533452965319157,-0.044847939163446426
1778956132.7299042,-0.6795867919921875,-9.721084899902344,-0.207169189453125,-0.10350419580936432,0.01751885749399662,-0.03471781685948372
1778956132.7518067,-0.622705078125,-9.668843536376954,-0.14115646362304687,-0.09131234884262085,-0.006685798522084951,-0.031374216079711914
1778956132.77437,-0.523311767578125,-9.85400848388672,-0.1838177490234375,-0.043027155101299286,-0.004540418740361929,-0.02075459621846676
1778956132.7964609,-0.6565347290039063,-9.909692687988281,-0.10148895263671875,-0.05421306937932968,0.02025587297976017,-0.010734437964856625
1778956132.8560915,-0.7056326293945313,-9.652228088378907,-0.0712518310546875,-0.08762133866548538,0.0023713852278888226,0.0066900975070893764
1778956132.8778136,-0.7903564453125,-9.764943695068359,-0.04894821166992188,-0.09075140208005905,0.03745420649647713,0.008688265457749367
1778956132.8986468,-0.8162525939941406,-9.654024353027344,0.08547225952148438,-0.1113247275352478,0.032870061695575714,-0.005615039262920618
1778956132.9185114,-0.6494993591308594,-9.733958129882813,0.20806732177734377,-0.14477267861366272,0.0036354493349790573,-0.0054701585322618484
1778956132.9469821,-0.2594105529785156,-9.774823150634766,0.1484912109375,-0.20533603429794312,-0.045480091124773026,0.037026163190603256
1778956132.975826,-0.4297563171386719,-9.895472259521485,0.05014572143554688,-0.25672632455825806,-0.029848851263523102,0.06185535341501236
1778956133.0000067,-0.9574090576171875,-9.903555450439454,0.024698638916015626,-0.33578765392303467,0.006548681296408176,-0.014397872611880302
1778956133.0218914,-0.8161029052734375,-9.687255249023439,-0.10508148193359376,-0.3988271653652191,0.04650132358074188,-0.04911351948976517
1778956133.0434158,-0.55564453125,-9.592801666259765,-0.18711090087890625,-0.44353294372558594,0.05390862748026848,-0.06003433093428612
1778956133.0637825,-0.6601272583007813,-9.686506805419922,-0.45116180419921875,-0.5096350908279419,0.09908562898635864,-0.06659983098506927
1778956133.0862496,-0.7884104919433594,-9.822723541259766,-0.5393284606933594,-0.5485579967498779,0.15725886821746826,-0.07632356137037277
1778956133.1065156,-0.6536906433105469,-9.65716781616211,-0.5221142578125,-0.5784600377082825,0.19499357044696808,-0.0814133957028389
1778956133.1268718,-0.41763153076171877,-9.604627075195314,-0.49831375122070315,-0.6089707612991333,0.1846196949481964,-0.07938405126333237
1778956133.147337,-0.4249662780761719,-9.776170349121093,-0.6230044555664063,-0.6342403888702393,0.14277037978172302,-0.09490922093391418
1778956133.1687224,-0.4093986511230469,-10.056387634277344,-0.5237608337402344,-0.7459255456924438,0.10693170130252838,-0.10027895867824554
1778956133.190051,-0.24040008544921876,-10.211764526367189,-1.0038125610351563,-0.7617283463478088,0.11707708239555359,-0.067564956843853
1778956133.2108667,-0.3189866638183594,-10.144254913330078,-1.426084442138672,-0.7506939768791199,0.1683991551399231,-0.02575279027223587
1778956133.2327263,-0.5370831298828125,-10.177934875488281,-1.5395484924316407,-0.855697512626648,0.18235014379024506,0.02687232941389084
1778956133.2536857,-0.62031005859375,-10.369087371826172,-1.9151174926757812,-0.836685061454773,0.18024197220802307,0.02243844047188759
1778956133.2755136,-0.9244775390625001,-10.484497375488282,-2.1604573059082033,-0.7706488370895386,0.20806075632572174,0.005136945750564337
1778956133.297377,-0.8665480041503907,-10.091265106201172,-2.2793101501464843,-0.7326834201812744,0.19447673857212067,-0.00875488668680191
1778956133.3195326,-0.6230044555664063,-10.029293975830079,-2.4899221801757814,-0.6994826197624207,0.15533104538917542,-0.025249972939491272
1778956133.3415895,-0.3764671325683594,-10.206525421142578,-2.8436366271972657,-0.6843456625938416,0.1523115336894989,-0.030455125495791435
1778956133.3627002,-0.018411712646484377,-10.137818298339845,-3.368445281982422,-0.6347582936286926,0.08116380870342255,-0.014060970395803452
1778956133.3845923,-0.35625915527343754,-10.219698028564453,-3.6720140075683596,-0.5475472807884216,0.10671369731426239,-0.007589743472635746
1778956133.4053345,-0.7815248107910157,-10.904673614501954,-3.5320550537109376,-0.4172099232673645,0.18458902835845947,-0.05230874940752983
1778956133.428252,-0.5587879943847657,-11.147618408203126,-3.2919543457031253,-0.40589508414268494,0.17089857161045074,-0.07934755831956863
1778956133.4495358,0.12184661865234375,-10.636880493164064,-3.768413543701172,-0.4438707232475281,0.07131874561309814,-0.03976020961999893
1778956133.472398,-0.590372314453125,-10.813213806152344,-4.483925628662109,-0.36363065242767334,0.03853485733270645,0.10311707854270935
1778956133.4931989,-1.387764129638672,-10.684930572509765,-4.199816436767579,-0.2782402038574219,0.031113682314753532,0.1231435015797615
1778956133.5152183,-1.3371693420410158,-10.258018341064453,-3.9064265441894532,-0.2125656008720398,-0.05053522437810898,0.04573420435190201
1778956133.5365336,-1.0591973876953125,-9.792486419677735,-3.8708006286621095,-0.10215112566947937,-0.09506472200155258,0.02937920019030571
1778956133.5570004,-1.1032058715820312,-9.548493804931642,-3.4631982421875,-0.05906001478433609,-0.14454734325408936,0.04331684857606888
1778956133.5767102,-1.0440788269042969,-9.743089141845704,-3.451073455810547,-0.0006962907500565052,-0.21920029819011688,0.02101580798625946
1778956133.5989664,-0.7406597900390626,-10.023755493164064,-3.5895355224609378,0.09856603294610977,-0.21325372159481049,0.04101269692182541
1778956133.6212149,-0.7441026306152344,-9.819430389404298,-3.366199951171875,0.17840448021888733,-0.1874956339597702,0.10091223567724228
1778956133.646887,-0.5294490051269531,-9.588610382080079,-3.2123199462890626,0.22984014451503754,-0.2656958997249603,0.08610107749700546
1778956133.6690614,-0.43185195922851566,-9.709109802246095,-3.211421813964844,0.2765450179576874,-0.31152042746543884,0.08738284558057785
1778956133.688152,-0.5147795104980469,-10.195598144531251,-3.3524285888671876,0.3265647888183594,-0.2941145598888397,0.08533991873264313
1778956133.7081673,-0.3986210632324219,-10.18601806640625,-3.3700918579101566,0.3739047646522522,-0.30434420704841614,0.07330484688282013
1778956133.7298596,-0.5742059326171876,-10.165660400390626,-3.3076716613769532,0.39349010586738586,-0.35426148772239685,0.06927283108234406
1778956133.753165,-0.9348060607910157,-10.363548889160157,-3.094365234375,0.43247711658477783,-0.3391435444355011,0.09600137919187546
1778956133.774048,-0.9740245056152345,-10.301278381347657,-2.7809170532226566,0.45568811893463135,-0.3551976978778839,0.09830580651760101
1778956133.7958188,-0.8698411560058594,-9.991273040771485,-2.6077272033691408,0.4624858796596527,-0.409902960062027,0.08627258241176605
1778956133.8169746,-1.0523117065429688,-10.099797363281251,-2.6791287231445313,0.45024436712265015,-0.47319701313972473,0.10436958074569702
1778956133.8365927,-1.0388397216796876,-10.062674560546876,-2.498903503417969,0.4230278432369232,-0.5019287467002869,0.16690857708454132
1778956133.860804,-1.5163467407226563,-10.209668884277344,-2.670297088623047,0.5189133286476135,-0.4036085307598114,0.1924363076686859
1778956133.8832283,-1.6495697021484377,-9.993218994140625,-2.2867945861816406,0.5503324866294861,-0.37932243943214417,0.1361786276102066
1778956133.9063225,-1.2278965759277345,-9.674531707763672,-1.7994081115722658,0.5056284070014954,-0.44182276725769043,0.1210755854845047
1778956133.9276443,-1.2115805053710937,-9.245074768066408,-2.2097048950195313,0.5436528921127319,-0.43374356627464294,0.15037168562412262
1778956133.9567084,-1.5190411376953126,-8.95018798828125,-1.7094451904296877,0.43491554260253906,-0.4525671899318695,0.10930920392274857
1778956134.0747256,-1.5061679077148438,-7.943681030273438,-1.0289602661132813,0.5266373157501221,-0.4150969982147217,0.1275433450937271
1778956134.1446352,-1.9338285827636719,-8.085585937500001,-0.762813720703125,0.49302613735198975,-0.4560301601886749,0.13537970185279846
1778956134.225675,-2.2480252075195315,-8.144413604736329,-1.0319540405273437,0.45110923051834106,-0.4287482500076294,0.16790303587913513
1778956134.2546384,-2.3405328369140626,-8.879385223388672,-0.4481680297851563,0.4149956703186035,-0.4286903142929077,0.047660235315561295
1778956134.3091896,-2.227218475341797,-9.442663879394532,-0.2568658447265625,0.3746122717857361,-0.5376686453819275,0.026772545650601387
1778956134.3380418,-2.3135888671875002,-9.78694793701172,-0.408350830078125,0.248661607503891,-0.5136500000953674,-0.03822430223226547
1778956134.3616405,-2.186203765869141,-9.844278717041016,-0.30386810302734374,0.4010145962238312,-0.4941689968109131,-0.0474202036857605
1778956134.382052,-2.1306692504882814,-9.977501678466798,0.4282594299316406,0.3362495005130768,-0.5575870871543884,-0.056555911898612976
1778956134.4030428,-1.7281562805175783,-9.971963195800782,0.48559020996093755,0.14121967554092407,-0.6435571908950806,-0.06676382571458817
1778956134.452578,-1.9496955871582031,-10.252330169677736,-0.5367837524414063,0.15555624663829803,-0.549246072769165,-0.04985034093260765
1778956134.4745574,-1.332678680419922,-10.117460632324219,-0.5445675659179687,0.14395150542259216,-0.539152204990387,-0.14027714729309082
1778956134.4943094,-0.9571096801757814,-9.595046997070312,-0.4025129699707031,0.14875879883766174,-0.4675323963165283,-0.12972944974899292
1778956134.515745,-0.8111631774902344,-8.924142150878907,0.06601272583007813,0.142128124833107,-0.4225020408630371,-0.05214516445994377
1778956134.5365489,-0.889749755859375,-8.572822723388672,0.5996530151367188,0.09055187553167343,-0.46498817205429077,0.004162571392953396
1778956134.5564022,-1.0807525634765625,-8.484656066894532,0.8125103759765625,0.034781333059072495,-0.5163758993148804,0.062443722039461136
1778956134.576863,-1.4913487243652344,-8.627459106445313,0.8536747741699219,-0.051934242248535156,-0.5889227986335754,0.04056532308459282
1778956134.598295,-1.5822097778320314,-8.653504943847656,0.4974156188964844,-0.1932852417230606,-0.6199937462806702,-0.0071585350669920444
1778956134.6200156,-1.4832655334472657,-8.46444808959961,-0.18711090087890625,-0.28083711862564087,-0.6226835250854492,-0.03483542799949646
1778956134.6678507,-1.0820997619628907,-8.312214660644532,-0.7074288940429688,-0.2097020149230957,-0.6427110433578491,-0.02810562215745449
1778956134.688364,-0.9584568786621094,-9.464219055175782,0.3932322692871094,-0.06652642786502838,-0.6957215070724487,-0.06443379819393158
1778956134.709122,-1.21427490234375,-9.67632797241211,0.5873785400390625,-0.21745724976062775,-0.7137826681137085,-0.07326403260231018
1778956134.7289486,-1.2663665771484376,-9.571246490478517,0.602197723388672,-0.25570231676101685,-0.7458024621009827,-0.07579617202281952
1778956135.8160894,-3.2717463684082033,-9.474697265625,-0.45340713500976565,-0.026460209861397743,-0.752731442451477,-0.1997237205505371
1778956135.83593,-1.4901512145996094,-9.299112396240234,-0.8768765258789063,-0.17676471173763275,-0.7332482933998108,-0.17541679739952087
1778956135.8578682,-1.8570382690429688,-9.138496398925781,-1.09452392578125,-0.07992072403430939,-0.6103442311286926,-0.06876518577337265
1778956135.8791924,-2.025737457275391,-9.133856048583985,-1.1641291809082033,0.04997111111879349,-0.46003758907318115,-0.022271178662776947
1778956135.9001021,-2.5976980590820316,-9.118438110351564,-1.4168037414550783,0.19894714653491974,-0.3388230502605438,-0.025348985567688942
1778956135.9227383,-2.8333081054687503,-9.10676239013672,-0.8678952026367188,0.21847312152385712,-0.3316776156425476,-0.14516356587409973
1778956135.94714,-2.2608984375000003,-9.351952514648438,0.014819183349609376,0.2649506628513336,-0.38456860184669495,-0.20027926564216614
1778956135.9674597,-1.8636245727539062,-9.460925903320312,0.4977149963378906,0.24260354042053223,-0.39264994859695435,-0.10463850200176239
1778956135.9886062,-2.290686492919922,-9.386979675292968,0.6460565185546875,0.10640650242567062,-0.40837863087654114,-0.07119984924793243
1778956136.0103076,-3.0160780334472657,-9.447004852294922,0.10133926391601562,0.05944743752479553,-0.3809428811073303,-0.12520794570446014
1778956136.0340154,-3.2347732543945313,-9.632618865966798,-0.4090992736816406,0.12905190885066986,-0.35619571805000305,-0.21729472279548645
1778956136.0575838,-2.2299128723144532,-9.708660736083985,-0.3769161987304688,0.2189442366361618,-0.2779472768306732,-0.16439558565616608
1778956136.0798385,-2.3412812805175784,-9.58621536254883,-0.03697311401367188,0.27411213517189026,-0.2739472985267639,-0.11452123522758484
1778956136.1011071,-2.664459228515625,-10.148745574951173,0.5373825073242188,0.4188498854637146,-0.25618046522140503,-0.1296357363462448
1778956136.1218483,-3.477119293212891,-11.461216278076172,2.0169058227539063,-0.05451839789748192,-0.2877534329891205,-0.2358359396457672
1778956136.1424303,-2.9270132446289066,-11.556567993164062,0.6924600219726563,-0.7041837573051453,-0.289395809173584,-0.23908846080303192
1778956136.164712,-1.7199234008789064,-10.199939117431642,-4.0320153808593755,-0.08823762834072113,-0.10014395415782928,-0.10777834802865982
1778956136.1849804,-2.374512176513672,-10.125693511962892,-3.354224853515625,0.45358482003211975,-0.04429418221116066,-0.15420205891132355
1778956136.2053337,-2.2676344299316407,-10.553803253173829,-0.4966671752929688,0.44094857573509216,-0.08267371356487274,-0.2508077025413513
1778956136.224382,-1.8413209533691408,-10.400372314453126,0.4698728942871094,0.3077552914619446,-0.09270681440830231,-0.2601734697818756
1778956136.244286,-1.5551161193847658,-9.50298843383789,-0.7056326293945313,0.25786250829696655,-0.10522007197141647,-0.3242507576942444
1778956136.2686362,-1.5060182189941407,-8.569080505371094,-1.3286370849609375,0.358135461807251,-0.12234149873256683,-0.38353753089904785
1778956136.2890902,-0.6375242614746094,-8.586294708251954,-1.2648696899414062,0.3737468421459198,-0.11871714890003204,-0.3108276426792145
1778956136.3097005,0.13681549072265625,-9.146280212402344,-1.342258758544922,0.4453392028808594,-0.080754853785038,-0.18798291683197021
1778956136.3317246,-0.10912307739257814,-9.449699249267578,-0.9888436889648438,0.4960920512676239,-0.11333595961332321,-0.23508255183696747
1778956136.36078,-0.8192463684082032,-10.040071563720703,-0.6942562866210937,0.5461727380752563,-0.22582724690437317,-0.5467362403869629
1778956136.3836434,-0.0209564208984375,-9.932295684814454,0.159268798828125,0.028850233182311058,-0.23926198482513428,-0.6173880696296692
1778956136.4064279,-0.047451324462890625,-10.031988372802735,-0.19369720458984377,-0.22143562138080597,-0.24247147142887115,-0.6109121441841125
1778956136.427401,-0.07304809570312501,-10.162217559814454,-1.0306068420410157,-0.03474128246307373,-0.23616455495357513,-0.6397621035575867
1778956136.4496405,0.15118560791015626,-9.79413299560547,-1.7365388488769533,0.3810087740421295,-0.19909149408340454,-0.6157110929489136
1778956136.4720922,0.6179150390625,-8.779692535400391,0.4171824645996094,0.43022236227989197,-0.3612527549266815,-0.545376181602478
1778956136.4927933,0.7008425903320313,-8.85333938598633,1.1308982849121094,0.12689447402954102,-0.43068891763687134,-0.3039795756340027
1778956136.513837,0.7020401000976563,-9.136550445556642,0.9366023254394532,-0.14735209941864014,-0.5065420866012573,-0.08962014317512512
1778956136.5341506,-0.8375083923339844,-10.246791687011719,0.11630813598632814,0.006377488374710083,-0.5489845275878906,-0.24557377398014069
1778956136.5577283,-0.4465214538574219,-10.033485260009765,-0.6020480346679687,0.3642430305480957,-0.5565641522407532,-0.41291165351867676
1778956136.5799532,0.907562713623047,-9.296567687988281,0.33126113891601566,0.4364120662212372,-0.4844825565814972,-0.32387658953666687
1778956136.601093,0.7213499450683594,-9.481582946777344,1.0436297607421876,0.21617688238620758,-0.4035782217979431,-0.20139513909816742
1778956136.6213028,0.17648300170898437,-9.894723815917969,1.3030403137207032,0.07380197942256927,-0.4540996849536896,-0.24429680407047272
1778956136.6425388,0.45535308837890626,-9.918374633789062,1.1103909301757813,0.07425909489393234,-0.4691946506500244,-0.24512876570224762
1778956136.6618824,0.3826043701171875,-9.571994934082031,1.0192304992675782,0.11139951646327972,-0.5409965515136719,-0.22443148493766785
1778956136.6815987,0.4412823486328125,-9.480984191894532,0.9229806518554688,0.15716589987277985,-0.613453209400177,-0.20970527827739716
1778956136.7021992,0.49906219482421876,-9.449549560546876,0.9120533752441407,0.18905963003635406,-0.6349987387657166,-0.14822804927825928
1778956136.7232802,0.590372314453125,-9.339228973388673,1.2232562255859376,0.1238638311624527,-0.6644555330276489,-0.0468367263674736
1778956136.744354,0.7589218139648438,-9.291029205322266,1.2597802734375,0.10730906575918198,-0.7029842138290405,0.016781143844127655
1778956136.76698,0.7048841857910156,-9.547595672607422,1.36037109375,0.10935914516448975,-0.7270632982254028,0.009422814473509789
1778956136.787207,0.779429168701172,-9.363029479980469,1.4214440917968751,0.09574992954730988,-0.7561150193214417,0.035979606211185455
1778956136.808382,0.7640112304687501,-9.41048080444336,1.3199551391601563,0.10101532191038132,-0.778175413608551,0.08931417763233185
1778956136.8298304,0.836909637451172,-9.549841003417969,1.3175601196289064,0.1305324286222458,-0.8207731246948242,0.1327599287033081
1778956136.8511126,0.6873706054687501,-10.371033325195313,1.1719129943847657,0.16193078458309174,-0.7519998550415039,0.0569477379322052
1778956136.8727114,-0.5379812622070312,-10.552755432128906,1.3479469299316407,0.1614963859319687,-0.8368096351623535,-0.06262314319610596
1778956136.8948677,1.05141357421875,-10.645113372802735,1.2040960693359375,0.2234756350517273,-0.8486394286155701,-0.09709108620882034
1778956136.9167576,0.8415499877929687,-10.605894927978516,1.7247134399414064,0.2587314248085022,-0.822498619556427,-0.01767856627702713
1778956136.9366052,0.223934326171875,-13.012440490722657,1.06099365234375,0.09821362048387527,-0.7996365427970886,-0.11403120309114456
1778956136.9568405,0.8054750061035156,-12.590467987060547,-0.4716691589355469,0.04374219477176666,-0.8331754207611084,-0.14063912630081177
1778956136.9825242,1.332528991699219,-11.053613891601563,-0.08936416625976563,-0.0647224709391594,-0.7550967335700989,0.24133913218975067
1778956137.0035655,0.9749226379394532,-8.938063201904297,0.6156697082519531,-0.17276039719581604,-0.8349167704582214,0.5498810410499573
1778956137.0264213,0.1483415222167969,-8.564440155029297,1.0964698791503906,-0.2039237767457962,-0.8020185828208923,0.5246971249580383
1778956137.0489328,0.007933502197265626,-7.960446166992188,0.13412109375,-0.038496848195791245,-0.7990238666534424,0.5058286190032959
1778956137.0690958,0.051492919921875005,-8.138426055908203,-0.7921527099609376,-0.000515863299369812,-0.7828122973442078,0.4566953778266907
1778956137.0914388,-0.31449600219726564,-9.048084411621094,-0.7479945373535156,-0.04496672376990318,-0.8060031533241272,0.2759533226490021
1778956137.1130035,-0.4819976806640625,-10.124496002197267,-0.16181350708007813,-0.1239670068025589,-0.7240839004516602,0.16601936519145966
1778956137.1336362,-0.31225067138671875,-10.469378814697267,0.664617919921875,-0.19905120134353638,-0.6982049345970154,0.1752336174249649
1778956137.153121,-0.6289920043945313,-10.451266479492189,0.6724017333984376,-0.3538075387477875,-0.6372515559196472,0.21433120965957642
1778956137.1759357,-1.0169851684570312,-10.635832672119141,-0.31644195556640625,-0.3301403522491455,-0.6266665458679199,0.1201583743095398
1778956137.1977463,-0.85981201171875,-10.365794219970704,-0.3147953796386719,-0.06150500476360321,-0.6549329161643982,0.13710327446460724
1778956137.219749,-0.386795654296875,-9.99247055053711,0.3381468200683594,-0.1146564707159996,-0.6971326470375061,0.25145915150642395
1778956137.2420573,-0.5129832458496094,-9.44880111694336,0.811761932373047,-0.32306140661239624,-0.8262725472450256,0.2551628351211548
1778956137.263016,-1.1106903076171875,-9.30659683227539,0.9623487854003907,-0.5165697336196899,-1.0770293474197388,0.07531154155731201
1778956137.2860465,-0.7912545776367188,-8.69916000366211,0.9785151672363281,-0.7513067722320557,-1.2252253293991089,0.0982549637556076
1778956137.306865,-0.4056564331054688,-8.595575408935547,0.11810440063476563,-0.8398990035057068,-1.1629339456558228,0.2783336341381073
1778956137.3274455,-0.41314086914062503,-8.808582458496094,-0.9934840393066406,-0.5460500717163086,-0.9992696642875671,0.5011829137802124
1778956137.3507419,-1.3892610168457031,-9.496102752685548,-1.3403128051757813,-0.26116126775741577,-0.8068659901618958,0.38026323914527893
1778956137.3731098,-1.9137702941894532,-10.240205383300781,-1.3253439331054688,-0.04478950798511505,-0.5806096196174622,0.1844329833984375
1778956137.3957334,-2.262694702148438,-10.378368072509765,-0.5412744140625,0.10806724429130554,-0.6174989938735962,-0.14879319071769714
1778956137.4163723,-0.22722747802734375,-9.401050415039062,0.021106109619140626,0.3078344762325287,-0.6824953556060791,-0.1868113875389099
1778956137.4388678,0.1215472412109375,-9.270970916748047,0.47062133789062505,0.27717697620391846,-0.5817016959190369,0.010326708666980267
1778956137.4600558,-0.8017327880859375,-9.166787567138673,1.1175759887695313,0.1262412816286087,-0.601648211479187,0.0024818223901093006
1778956137.4808998,-0.9098080444335938,-9.27680877685547,0.8279283142089844,-0.008468054234981537,-0.5157239437103271,-0.013944031670689583
1778956137.5014021,-0.7920030212402344,-9.291478271484376,0.5833369445800781,0.008981455117464066,-0.49473610520362854,-0.15128855407238007
1778956137.5246909,-0.44143203735351566,-9.247769165039063,0.276624755859375,0.10081446170806885,-0.4073541760444641,-0.11503945291042328
1778956137.581971,-0.5924679565429688,-9.456584930419922,0.4592449951171875,0.03614632785320282,-0.1893967092037201,0.015984583646059036
1778956137.602999,-1.4376104736328126,-10.350076904296875,0.4870870971679688,-0.07315126061439514,-0.20791907608509064,-0.08864221721887589
1778956137.6233683,-1.6003221130371095,-10.769504699707031,0.6144721984863282,-0.011632305569946766,-0.11491726338863373,-0.12943226099014282
1778956137.6457975,-2.6135650634765626,-11.916719055175783,-1.1187734985351563,0.13608352839946747,-0.06635303050279617,-0.38362035155296326
1778956137.666547,-0.6707551574707031,-12.06805435180664,-0.5716612243652344,-0.16721931099891663,-0.08662015199661255,-0.2526586055755615
1778956137.6865606,-0.031284942626953124,-12.3630908203125,-1.4829661560058593,0.097441665828228,-0.14541664719581604,-0.16458572447299957
1778956137.7072392,0.3799099731445313,-11.643237762451172,-0.32647109985351563,0.23952333629131317,-0.12080566585063934,0.08520334959030151
1778956137.7336953,-0.5038522338867187,-10.43884231567383,0.7138655090332031,0.2735489308834076,-0.18695403635501862,0.20710740983486176
1778956137.7525742,-1.906285858154297,-9.173373870849609,0.8958869934082032,0.2251797616481781,-0.26489177346229553,0.17150625586509705
1778956137.772846,-1.9797830200195314,-7.671097869873047,0.3968247985839844,0.26066434383392334,-0.35383835434913635,0.055541303008794785
1778956137.7925353,-1.1006611633300782,-7.283104705810548,-0.40071670532226566,0.38680288195610046,-0.37764331698417664,0.0010871272534132004
1778956137.81614,-0.3047662353515625,-8.253836059570313,-0.4453239440917969,0.0653664842247963,-0.3930874466896057,0.05605104938149452
1778956137.837041,0.1922003173828125,-9.50912567138672,-0.6906637573242188,-0.1346670538187027,-0.5011289119720459,-0.017292682081460953
1778956137.8591542,0.19249969482421875,-10.500963134765625,-0.7370672607421875,-0.13916979730129242,-0.5139013528823853,-0.1381448209285736
1778956137.8801463,-0.11451187133789063,-10.64152084350586,-0.731678466796875,-0.04813017696142197,-0.5001012086868286,-0.28562161326408386
1778956137.9382215,0.6960525512695312,-10.848839721679688,-1.622476043701172,0.1484052687883377,-0.6582980751991272,-0.3468562066555023
1778956137.9594831,0.07289840698242188,-10.667416992187501,-1.0006690979003907,0.2257622480392456,-0.6654306054115295,-0.27769577503204346
1778956137.9801133,-0.5213658142089844,-10.057884521484375,0.15537689208984376,0.1975320428609848,-0.6702331304550171,-0.23284146189689636
1778956138.0021694,0.29877868652343753,-8.444240112304687,0.4977149963378906,0.2069966197013855,-0.77676922082901,-0.1315859854221344
1778956138.0213664,0.4781057739257813,-8.35427719116211,0.4646337890625,0.17319871485233307,-0.9263007044792175,-0.055722374469041824
1778956139.194956,-0.7014413452148438,-10.523266754150391,0.8988807678222657,0.06032778322696686,-0.7021116614341736,-0.1732703298330307
1778956139.2158477,-0.863404541015625,-10.565478973388672,-0.43200164794921875,-0.052765876054763794,-0.535221517086029,-0.10128428041934967
1778956139.237655,-0.8671467590332032,-10.379266204833986,-0.8414002990722657,0.03694365918636322,-0.43842265009880066,-0.13199105858802795
1778956139.2577238,-0.9581575012207032,-10.118807830810548,-0.7179071044921875,0.16050615906715393,-0.4208020865917206,-0.16533198952674866
1778956139.2783868,-0.999920654296875,-10.090965728759766,-0.06586303710937501,0.193138986825943,-0.4696855843067169,-0.149002805352211
1778956139.301661,-1.0051597595214845,-10.26071273803711,0.2746788024902344,0.15920548141002655,-0.5065976977348328,-0.10573361814022064
1778956139.3229492,-1.0880873107910156,-10.372380523681642,0.21091140747070314,0.1695084124803543,-0.5626757740974426,-0.08397187292575836
1778956139.3438013,-1.2717553710937501,-10.148895263671875,-0.2601589965820313,0.17106981575489044,-0.6539344787597656,-0.0666930079460144
1778956139.365606,-1.299298095703125,-9.629176025390626,-0.33560211181640626,0.137518972158432,-0.7156235575675964,-0.009595369920134544
1778956139.3865724,-0.9198371887207032,-8.983269195556641,-0.15013778686523438,0.1615312546491623,-0.8275218605995178,-0.013185840100049973
1778956139.4079545,-0.5689668273925782,-8.894204406738282,0.06676116943359375,0.20487818121910095,-0.9660285711288452,-0.047159790992736816
1778956139.4302769,0.1323248291015625,-9.063352661132813,0.08756790161132813,0.23090603947639465,-1.0910981893539429,-0.05088956281542778
1778956139.4781394,0.8494834899902344,-10.274783477783204,-0.07948471069335938,0.040293119847774506,-1.2496287822723389,-0.01573290303349495
1778956139.501007,0.680185546875,-10.566676483154298,-0.8146060180664063,-0.09832710027694702,-1.1479294300079346,-0.014606923796236515
1778956139.52064,0.7250921630859375,-10.456505584716798,-0.6671626281738282,-0.09753167629241943,-1.1766812801361084,-0.07327263802289963
1778956139.543297,0.6637197875976563,-9.59489730834961,-0.08532257080078126,-0.036571063101291656,-1.2106449604034424,-0.06547992676496506
1778956139.5647297,0.49786468505859377,-9.072333984375,0.19055374145507814,-0.08069165050983429,-1.2243356704711914,-0.013136051595211029
1778956139.586324,0.5134323120117188,-8.88357650756836,0.31210098266601566,-0.09928678721189499,-1.2799245119094849,-0.026156533509492874
1778956139.607713,0.5622308349609375,-9.196875,0.17753082275390625,-0.04688853770494461,-1.3004977703094482,-0.03401097655296326
1778956139.628,0.2805166625976563,-9.500892791748047,0.25417144775390627,-0.044516220688819885,-1.2468982934951782,-0.009314680472016335
1778956139.6497614,0.045954437255859376,-9.741741943359376,0.49337402343750003,-0.06994298845529556,-1.1768347024917603,0.012570908293128014
1778956139.703399,0.30222152709960937,-10.01926483154297,0.6306385803222656,-0.05455571413040161,-1.2323559522628784,-0.026864396408200264
1778956139.7232533,0.21165985107421875,-10.171049194335938,0.6804849243164063,-0.06509965658187866,-1.1619696617126465,0.008502406999468803
1778956139.7455637,0.21929397583007815,-9.996512145996094,0.8482859802246094,-0.014178269542753696,-1.1559321880340576,0.020250406116247177
1778956139.7668974,0.31853759765625,-9.658814392089845,0.9259744262695313,0.029789242893457413,-1.1918604373931885,0.019139597192406654
1778956139.7879448,0.2567161560058594,-9.575437774658203,1.0252180480957032,0.021373312920331955,-1.1983424425125122,0.050316955894231796
1778956139.8078349,0.350870361328125,-9.652976531982423,1.05620361328125,0.0242699533700943,-1.1968849897384644,0.09610309451818466
1778956139.8328633,0.305364990234375,-9.683363342285157,1.0773097229003907,0.08329503238201141,-1.153835415840149,0.12840457260608673
1778956139.852763,0.3234773254394531,-9.580976257324219,1.1201206970214845,0.10480255633592606,-1.1091512441635132,0.14675161242485046
1778956139.8732605,0.44023452758789067,-9.470505981445314,1.1570938110351563,0.11570185422897339,-1.0843024253845215,0.18032848834991455
1778956139.9234772,0.4966671752929688,-9.5034375,1.3629158020019532,0.07260444760322571,-1.069039225578308,0.19497214257717133
1778956139.949104,0.5204676818847657,-9.667346649169922,1.29091552734375,0.07553310692310333,-1.0171575546264648,0.18567532300949097
1778956139.9684188,0.5736071777343751,-9.638456726074219,1.1816427612304687,0.08255447447299957,-0.979905903339386,0.16304270923137665
1778956139.9872108,0.6884184265136719,-9.55657699584961,1.1175759887695313,0.08929286152124405,-0.9424670338630676,0.14622165262699127
1778956140.007117,0.7617658996582032,-9.642947387695314,0.9705816650390625,0.079463891685009,-0.8877426981925964,0.13491518795490265
1778956140.0278606,0.7553292846679688,-9.823322296142578,1.1603869628906252,0.03346240893006325,-0.8535026907920837,0.13629606366157532
1778956140.0519545,0.7848179626464844,-9.909842376708985,1.0280621337890625,0.027498822659254074,-0.7748885154724121,0.18286700546741486
1778956140.0712667,0.4613406372070313,-9.808652801513672,1.3139675903320314,0.08520637452602386,-0.7634618878364563,0.1987977772951126
1778956140.0916972,0.18411712646484377,-10.681338043212891,1.8390756225585938,0.026882365345954895,-0.7672582864761353,0.20628869533538818
1778956140.1487868,-0.15956817626953126,-12.053534545898438,-0.09145980834960937,-0.14351260662078857,-0.7071230411529541,0.040986575186252594
1778956140.169252,-0.07903564453125,-11.231444091796876,-0.028740234375,-0.17025505006313324,-0.7196555137634277,0.04182412847876549
1778956140.1883903,-0.20657043457031252,-10.333611145019532,0.18441650390625,-0.15593169629573822,-0.6869832277297974,0.09019780904054642
1778956140.2103012,-0.013921051025390626,-9.55657699584961,0.4314028930664063,-0.04734934866428375,-0.6928501725196838,0.12166918069124222
1778956140.2317781,0.058528289794921876,-8.797206115722657,0.5632786560058594,-0.0023299860768020153,-0.696325421333313,0.15987460315227509
1778956140.300451,-0.0197589111328125,-8.577163696289062,0.46837600708007815,0.0010885940864682198,-0.6871616840362549,0.21221931278705597
1778956140.3648365,-1.0557545471191407,-9.654024353027344,-0.6741979980468751,-0.13420337438583374,-0.7204514741897583,-0.05606408417224884
1778956140.4127486,-0.8428971862792969,-10.602601776123047,0.45520339965820317,-0.2432626485824585,-0.7287586331367493,0.0782652422785759
1778956140.4812543,-1.0740165710449219,-10.263407135009766,-0.8954379272460938,-0.039909299463033676,-0.6695031523704529,0.06439150124788284
1778956140.5064027,-0.7487429809570313,-8.091124420166016,-0.2363584899902344,0.02685624361038208,-0.601159930229187,0.13477753102779388
1778956140.5264177,-0.7119195556640625,-8.102051696777345,0.31644195556640625,-0.061796803027391434,-0.5829997062683105,0.17990772426128387
1778956140.548185,-0.7613168334960938,-9.089847564697266,0.4132905578613281,-0.1196606457233429,-0.5591198801994324,0.17232009768486023
1778956140.5699732,-0.8955876159667969,-9.96612533569336,0.21210891723632813,-0.15051627159118652,-0.5233904719352722,0.13301131129264832
1778956140.5898888,-1.0136920166015626,-10.434950408935547,0.1023870849609375,-0.1394168585538864,-0.542050302028656,0.04565323144197464
1778956140.6109424,-1.1539503479003907,-10.53524185180664,0.10029144287109376,-0.1207776889204979,-0.4924115836620331,-0.007653919048607349
1778956140.6314445,-1.01788330078125,-9.932744750976562,0.3782633972167969,-0.07252202183008194,-0.5043618679046631,-0.06400801986455917
1778956140.6521125,-0.795146484375,-9.324559478759767,0.5063969421386719,-0.031781792640686035,-0.533327579498291,-0.09542452543973923
1778956140.6720905,-0.7937992858886719,-9.117539978027343,0.5896238708496094,-0.0357477068901062,-0.515929639339447,-0.07726868242025375
1778956140.6926737,-0.6420149230957032,-9.058263244628908,0.6831793212890626,0.02041890099644661,-0.5187060832977295,-0.07493656128644943
1778956140.7128592,-0.6840774536132813,-9.26633056640625,0.8105644226074219,0.0620221383869648,-0.4506925344467163,-0.07468251138925552
1778956140.7349973,-0.757873992919922,-9.648785247802735,0.7408094787597657,0.09351092576980591,-0.36943843960762024,-0.09370891004800797
1778956140.7546408,-0.8406518554687501,-9.855655059814454,0.5346881103515625,0.1048639714717865,-0.34588372707366943,-0.15006966888904572
1778956140.7754142,-0.942440185546875,-10.102342071533204,0.21001327514648438,0.08104230463504791,-0.2580258250236511,-0.1687682420015335
1778956140.7982352,-0.8473878479003907,-10.094857635498048,0.18232086181640625,0.08395577222108841,-0.20043717324733734,-0.20231688022613525
1778956140.8227317,-0.6914122009277344,-9.967622222900392,0.35581008911132816,0.10335516929626465,-0.1666482537984848,-0.22059044241905212
1778956140.8471327,-0.5014572143554688,-10.137967987060547,0.8304730224609376,0.10251632332801819,-0.18211527168750763,-0.19067566096782684
1778956140.8703692,-0.41583526611328125,-11.17845428466797,1.2751982116699219,0.0351991131901741,-0.2336246371269226,-0.1295127272605896
1778956140.8912728,-0.966390380859375,-12.033476257324219,0.1149609375,-0.3120453357696533,-0.1850847601890564,-0.05871684104204178
1778956140.9137485,-1.0321037292480468,-12.8708349609375,-2.0100201416015624,-0.33439698815345764,-0.17424450814723969,-0.16114309430122375
1778956140.935682,-0.7334747314453125,-12.18870346069336,-1.922901306152344,0.005388380028307438,-0.0382981114089489,-0.2766435742378235
1778956140.955385,-0.17618362426757814,-9.863887939453125,-0.036524047851562505,0.16818732023239136,-0.05216692015528679,-0.18257486820220947
1778956140.9766452,0.05553451538085938,-7.7160044860839845,0.9623487854003907,0.15167634189128876,-0.09035995602607727,0.007862449623644352
1778956140.9993086,-0.08831634521484376,-6.714437255859376,0.948278045654297,0.11034758388996124,-0.14428851008415222,0.14119653403759003
1778956141.0198722,-0.6860234069824219,-7.0997360229492195,0.4453239440917969,0.07232728600502014,-0.1452956646680832,0.1980544924736023
1778956141.0389593,-0.9669891357421876,-8.288414154052735,-0.11406280517578125,0.07903707772493362,-0.1400114744901657,0.15714170038700104
1778956141.0593908,-0.9192384338378907,-9.479187927246095,-0.5342390441894531,0.06198573857545853,-0.19682909548282623,0.007523160427808762
1778956141.0814192,-0.828527069091797,-10.494227142333985,-1.0985655212402343,-0.035692248493433,-0.32933175563812256,-0.17616252601146698
1778956141.1031556,-0.30611343383789064,-11.257489929199219,-1.5681390380859377,-0.041843146085739136,-0.4357578456401825,-0.3543359637260437
1778956141.1244795,0.286204833984375,-10.862760772705078,-0.9514215087890625,0.14048145711421967,-0.47759461402893066,-0.4032806158065796
1778956141.14355,0.7521858215332031,-9.880802764892579,-0.3212319946289063,0.2553426921367645,-0.5096883177757263,-0.3326077461242676
1778956141.1638846,1.0220745849609376,-9.404343566894532,-0.12274475097656251,0.22764939069747925,-0.5387542247772217,-0.14905472099781036
1778956141.1855178,0.8984317016601563,-9.542655944824219,-0.22767654418945313,0.10576765239238739,-0.5680221915245056,0.017156880348920822
1778956141.2059667,0.6101312255859376,-9.981393585205078,-0.7524851989746094,0.04174228757619858,-0.5762900710105896,0.10280123353004456
1778956141.2270336,0.029189300537109376,-10.074050903320312,-0.9011260986328126,0.036980725824832916,-0.5730019807815552,0.1067725345492363
1778956141.2495263,-0.21465362548828126,-9.792935485839845,-0.5288502502441407,0.09414620697498322,-0.6016514897346497,0.07103423774242401
1778956141.271261,-0.045056304931640624,-9.350006561279297,-0.10313552856445313,0.1462823897600174,-0.7279883027076721,0.017992578446865082
1778956141.2918212,0.214354248046875,-9.290280761718751,0.05822891235351563,0.15900732576847076,-0.8931448459625244,-0.04406064748764038
1778956141.3122118,0.355660400390625,-9.668244781494142,0.10388397216796875,0.054891347885131836,-0.9653574824333191,-0.019367042928934097
1778956141.3332608,0.46104125976562504,-9.811796264648438,0.06855743408203126,0.033357154577970505,-0.9891109466552734,-0.005996915977448225
1778956141.3548188,0.3683839416503906,-9.685159606933594,0.11735595703125,0.025151513516902924,-1.0472790002822876,-0.04440874978899956
1778956141.3765523,0.38080810546875005,-9.774972839355469,-0.006436614990234376,0.037747737020254135,-1.0745327472686768,-0.05163867771625519
1778956141.3969958,0.386795654296875,-9.839338989257813,-0.11795471191406251,0.07570229470729828,-1.0350368022918701,-0.004253597464412451
1778956141.4197006,0.4616400146484375,-9.730215911865235,0.08008346557617188,0.0902479961514473,-1.0434966087341309,0.02884363755583763
1778956141.441304,0.47720764160156254,-9.445507965087891,0.37601806640625,0.11165238916873932,-1.1107217073440552,0.05232473835349083
1778956141.461588,0.38320312500000003,-9.566456451416016,0.5545967102050782,0.13774824142456055,-1.1839247941970825,0.13257509469985962
1778956141.484419,0.3706292724609375,-9.64564178466797,0.6304888916015625,0.12593750655651093,-1.2173938751220703,0.1741480976343155
1778956141.5039585,0.42302032470703127,-9.732311553955078,0.48678771972656254,0.09810785949230194,-1.2851452827453613,0.17404264211654663
1778956141.523892,0.29608428955078125,-9.816885681152344,0.3944297790527344,0.05947888642549515,-1.3144227266311646,0.182221457362175
1778956141.5446596,0.2124082946777344,-9.685009918212891,0.5278024291992188,0.042805444449186325,-1.3485853672027588,0.19321875274181366
1778956141.5649908,0.3330574035644531,-9.583820343017578,0.42766067504882815,0.06672326475381851,-1.3579591512680054,0.21153676509857178
1778956141.586949,0.501756591796875,-9.6710888671875,0.4424798583984375,0.0653991550207138,-1.386176586151123,0.2211611568927765
1778956142.6764636,-1.8732046508789064,-11.790531463623047,0.23037094116210938,-0.07239963859319687,0.03511099889874458,-0.10101796686649323
1778956142.702957,-1.5762222290039063,-12.204271087646484,-1.9513421630859376,-0.019466737285256386,0.03100534901022911,-0.26330405473709106
1778956142.723349,-0.5649252319335938,-10.785671081542969,-0.8698411560058594,0.1557549387216568,0.04088346287608147,-0.35573282837867737
1778956142.7439969,-0.029488677978515627,-8.461454315185547,0.7214996337890626,0.08221898972988129,0.04203013330698013,-0.16992352902889252
1778956142.7658465,0.3219804382324219,-7.030729522705078,1.2073892211914063,0.021950613707304,0.03105533868074417,0.015462305396795273
1778956142.7864525,0.3730242919921875,-7.221582641601563,1.0473719787597657,0.04566919058561325,-0.03767780959606171,0.09166331589221954
1778956142.8088384,0.1634600830078125,-8.401728515625,0.4822970581054688,0.06493186205625534,-0.06498778611421585,0.08211030066013336
1778956142.82831,-0.061671752929687504,-9.490564270019531,-0.02185455322265625,0.05654236674308777,-0.0563850924372673,-0.0024288129061460495
1778956142.848363,0.001197509765625,-10.323582000732422,-0.2743794250488281,0.03355085477232933,-0.03726612776517868,-0.11396465450525284
1778956142.8707743,0.319735107421875,-10.771750030517579,-0.142503662109375,0.010534440167248249,-0.05566703900694847,-0.203733429312706
1778956142.891464,1.0145901489257814,-10.63628173828125,0.22468276977539064,0.02365364134311676,-0.17700281739234924,-0.2946425676345825
1778956142.9129615,1.2223580932617188,-10.20323226928711,0.39577697753906255,0.011273065581917763,-0.1976291537284851,-0.2041640430688858
1778956142.9334276,1.3516891479492188,-9.807604980468751,0.5770500183105469,0.010546875186264515,-0.19845137000083923,-0.11080615967512131
1778956142.9556763,1.3346246337890626,-9.816286926269532,0.44801834106445315,-0.012561667710542679,-0.2264692336320877,-0.0584164559841156
1778956142.9795558,1.0217752075195312,-9.911339263916016,0.0916094970703125,-0.06752428412437439,-0.21712777018547058,-0.0242193341255188
1778956143.0010319,0.6354286193847657,-9.741292877197266,0.18276992797851563,-0.0943571999669075,-0.17718824744224548,-0.015842096880078316
1778956143.021125,0.5063969421386719,-9.379495239257812,0.46478347778320317,-0.052087560296058655,-0.16734617948532104,-0.020225387066602707
1778956143.0415869,0.5081932067871094,-9.089099121093751,0.6999444580078126,-0.044109877198934555,-0.17268343269824982,-0.030317427590489388
1778956143.063544,0.5641767883300781,-9.20016815185547,0.6640191650390626,-0.08841419219970703,-0.16434645652770996,-0.021255234256386757
1778956143.1149611,0.5932164001464844,-9.970615997314454,0.5096900939941407,-0.12795503437519073,-0.18984955549240112,-0.068135105073452
1778956143.1520016,0.4956193542480469,-9.919422454833985,0.6268963623046875,-0.08265923708677292,-0.1842745542526245,-0.07870146632194519
1778956143.1956725,0.41463775634765626,-9.79802490234375,1.0671308898925782,-0.0469050295650959,-0.16168539226055145,0.03998016566038132
1778956143.2347045,0.16301101684570313,-9.851763153076172,1.136287078857422,-0.02704535983502865,-0.16832831501960754,0.10275724530220032
1778956143.2784128,-0.35296600341796874,-9.619146881103516,0.9174421691894532,0.03315934166312218,-0.21252138912677765,0.14475610852241516
1778956143.3065646,-0.2938389587402344,-9.560019836425782,0.9518705749511719,0.07120871543884277,-0.25508493185043335,0.14101570844650269
1778956143.3500874,0.03457809448242188,-9.595496063232423,0.8613088989257813,0.031563397496938705,-0.33429282903671265,0.1718287616968155
1778956143.4012997,0.07304809570312501,-9.576784973144532,0.7734416198730469,0.0451878122985363,-0.3713688850402832,0.17901314795017242
1778956143.423976,-0.020207977294921877,-9.633666687011718,0.9081614685058594,0.03949577733874321,-0.37661510705947876,0.18084006011486053
1778956143.443832,-0.07843688964843751,-9.784253540039064,1.1383827209472657,0.018498815596103668,-0.3673105537891388,0.21649101376533508
1778956143.475465,-0.19714004516601563,-9.923613739013673,1.2379257202148437,-0.0022389059886336327,-0.3569478690624237,0.2679174542427063
1778956143.497087,-0.43304946899414065,-10.388995971679687,1.1380833435058595,0.045085061341524124,-0.31542035937309265,0.34412088990211487
1778956143.518446,-0.6707551574707031,-10.933413848876954,0.7447013854980469,0.007237696088850498,-0.3261967599391937,0.3000125288963318
1778956143.5395265,-0.8039781188964844,-11.362122344970704,0.35042129516601567,-0.135541170835495,-0.3207356333732605,0.21352560818195343
1778956143.5596733,-0.6078858947753907,-11.679462432861328,-0.17588424682617188,-0.23796558380126953,-0.39977404475212097,0.07520313560962677
1778956143.5827458,-0.27452911376953126,-11.261681213378907,-0.4002676391601563,-0.18390026688575745,-0.46906808018684387,-0.04251682758331299
1778956143.6038218,-0.2758763122558594,-10.46279251098633,0.08652008056640625,-0.046861324459314346,-0.39610955119132996,-0.04255705699324608
1778956143.626141,0.087418212890625,-9.529633026123047,0.7206015014648438,0.0669647827744484,-0.25033944845199585,0.06569591909646988
1778956143.6453602,0.6089337158203125,-8.910071411132813,0.8205935668945313,0.04488092660903931,-0.1292615830898285,0.18459005653858185
1778956143.6655135,0.7616162109375001,-9.037157135009766,0.23935226440429688,-0.05171485245227814,-0.09328679740428925,0.22485895454883575
1778956143.686915,0.2950364685058594,-9.475296020507812,-0.8449928283691407,-0.1252647191286087,-0.15189309418201447,0.0444718599319458
1778956143.7069054,-0.188009033203125,-9.405541076660157,-1.1270063781738282,-0.12232180684804916,-0.0931967943906784,-0.0722382441163063
1778956143.7272758,-0.31689102172851563,-9.350305938720703,-0.8400531005859375,-0.10142314434051514,0.048048149794340134,-0.14651940762996674
1778956143.7493122,-0.14998809814453126,-9.147178344726562,-0.31374755859375003,-0.09903454780578613,0.20708279311656952,-0.17005136609077454
1778956143.7694082,0.13382171630859377,-9.343270568847657,0.12918136596679688,-0.04149438813328743,0.33175042271614075,-0.17437314987182617
1778956143.7900286,0.19085311889648438,-9.98244140625,0.4195774841308594,-0.007288727909326553,0.410828173160553,-0.1669677048921585
1778956143.8106694,-0.1483415222167969,-10.508896636962891,0.41074584960937505,-0.05516211315989494,0.49882441759109497,-0.1456323117017746
1778956143.8340049,-0.3309617614746094,-10.827134857177734,0.1872605895996094,-0.05677545815706253,0.6040147542953491,-0.12379038333892822
1778956143.855465,-0.3878434753417969,-10.507250061035156,0.09789642333984376,0.021368850022554398,0.7044140100479126,-0.11469915509223938
1778956143.8769104,-0.5857319641113281,-9.565408630371094,-0.013921051025390626,0.0634746178984642,0.9029279351234436,-0.04225371778011322
1778956143.9380996,-0.8511300659179688,-9.187893676757813,0.09819580078125001,0.01002514362335205,1.0357321500778198,-0.07172771543264389
1778956143.959167,-1.0448272705078125,-9.654024353027344,0.019908599853515625,-0.005929532460868359,1.0878236293792725,-0.106620192527771
1778956143.9818506,-1.1784992980957032,-10.001302185058595,-0.08217910766601563,0.008194313384592533,1.1929668188095093,-0.13114070892333984
1778956144.003565,-1.1379336547851564,-9.947563934326173,0.08008346557617188,0.039143092930316925,1.273254156112671,-0.16744093596935272
1778956144.0234323,-1.0761122131347656,-9.564809875488281,0.20986358642578126,0.039877213537693024,1.3181302547454834,-0.18948523700237274
1778956144.0443192,-0.9523196411132813,-9.381890258789063,0.08577163696289063,0.06026928499341011,1.360891342163086,-0.1817122846841812
1778956144.0654626,-1.0439291381835938,-9.42095901489258,-0.035176849365234374,0.08405373245477676,1.4154565334320068,-0.16447149217128754
1778956144.0856721,-1.1602372741699218,-9.386231231689454,-0.0425115966796875,0.10121368616819382,1.4564449787139893,-0.16831177473068237
1778956144.1066942,-1.1897259521484376,-9.336384887695313,0.0664617919921875,0.12039243429899216,1.489708423614502,-0.1853618621826172
1778956144.1278327,-1.144519958496094,-9.322014770507813,0.044307861328125,0.11383669823408127,1.5308411121368408,-0.19311432540416718
1778956144.1481209,-1.0916798400878907,-9.596843261718751,-0.20537292480468752,0.12192884832620621,1.5639199018478394,-0.20111927390098572
1778956144.169215,-1.091081085205078,-9.849517822265625,-0.38664596557617187,0.13264092803001404,1.6330465078353882,-0.1950395256280899
1778956144.1905272,-1.1421249389648438,-9.804311828613281,-0.3251239013671875,0.09592818468809128,1.7317736148834229,-0.17180797457695007
1778956144.212629,-1.099463653564453,-9.648934936523437,-0.4058061218261719,0.05764000862836838,1.7950495481491089,-0.13746623694896698
1778956144.2339609,-0.8653504943847656,-10.105635223388672,-0.7967930603027344,-0.032813213765621185,1.8043595552444458,-0.10573840886354446
1778956144.2544081,-0.8318202209472657,-10.43315414428711,-1.1491603088378908,-0.16116955876350403,1.7970795631408691,-0.08921162784099579
1778956144.2754254,-0.8622070312500001,-10.627001037597656,-1.6531622314453125,-0.2787375748157501,1.8331782817840576,-0.05376948416233063
1778956144.299804,-0.6411167907714844,-10.53613998413086,-1.6711248779296877,-0.28543347120285034,1.884347677230835,-0.0360107421875
1778956144.376487,1.3229489135742187,-10.985804901123048,-0.6042933654785156,-0.32768818736076355,1.6518319845199585,-0.21094097197055817
1778956144.4032187,1.871558074951172,-9.387877807617189,0.46059219360351566,-0.3152245879173279,1.7423402070999146,-0.11872796714305878
1778956144.4254348,1.847757568359375,-8.517886962890625,0.6459068298339844,-0.25232890248298645,1.724875807762146,-0.09830950945615768
1778956144.444415,1.447639617919922,-8.334368591308595,0.7996371459960938,-0.21908330917358398,1.7146590948104858,-0.06581788510084152
1778956144.492747,1.099463653564453,-10.098599853515626,0.00449066162109375,-0.1616409868001938,1.6999834775924683,-0.12068033218383789
1778956144.5130987,1.0738668823242188,-10.460846557617188,-0.2770738220214844,-0.13442401587963104,1.6687935590744019,-0.20038741827011108
1778956144.532783,1.0906320190429688,-10.16251693725586,-0.20686981201171875,-0.08150912821292877,1.6441466808319092,-0.2062775194644928
1778956144.5562813,1.2701087951660157,-9.5417578125,0.03278182983398438,-0.033982448279857635,1.6178399324417114,-0.15905781090259552
1778956144.5777109,1.1767030334472657,-9.244476013183593,0.18711090087890625,-0.07106419652700424,1.5852141380310059,-0.08418811112642288
1778956144.5992033,1.0496173095703125,-9.386680297851562,-0.028590545654296876,-0.10777260363101959,1.5989967584609985,-0.014273995533585548
1778956144.6188138,1.0229727172851564,-9.649234313964845,-0.18291961669921875,-0.08195086568593979,1.5783458948135376,0.012297693639993668
1778956144.6397154,0.9271719360351564,-9.771080932617188,-0.23590942382812502,-0.054150186479091644,1.5322157144546509,0.008604404516518116
1778956144.6603897,0.7908055114746094,-10.032437438964845,-0.04655319213867188,-0.018475454300642014,1.473075270652771,0.04484497010707855
1778956144.7094815,0.7920030212402344,-10.029443664550781,-0.008532257080078126,0.012441196478903294,1.4603044986724854,0.08703771978616714
1778956144.7312388,0.6295907592773438,-9.77886474609375,0.13457015991210938,0.13344965875148773,1.3711116313934326,0.1752498596906662
1778956144.751812,0.6623725891113281,-9.679471435546876,-0.012274475097656251,0.1826128214597702,1.3035094738006592,0.18962667882442474
1778956144.7737856,0.5303471374511719,-9.797575836181641,-0.19714004516601563,0.18624143302440643,1.2633370161056519,0.2079811990261078
1778956144.7952688,0.5140310668945313,-9.85550537109375,-0.3998185729980469,0.16474267840385437,1.244756817817688,0.21715867519378662
1778956144.8183203,0.5355862426757813,-9.645791473388673,-0.5466632080078125,0.16864325106143951,1.2086714506149292,0.21540606021881104
1778956144.838951,0.5062472534179687,-9.312883758544922,-0.4782554626464844,0.17986273765563965,1.1766438484191895,0.21932385861873627
1778956144.8597498,0.7463479614257813,-9.169182586669923,-0.44262954711914065,0.13453109562397003,1.13836669921875,0.2413196861743927
1778956144.88181,0.847687225341797,-9.301058349609375,-0.6752458190917969,0.08162324875593185,1.0852077007293701,0.26137036085128784
1778956144.9298306,0.8644523620605469,-9.620045013427735,-0.7502398681640625,0.012101356871426105,1.0410571098327637,0.25613752007484436
1778956144.9508293,0.2070195007324219,-9.846074981689453,-0.7363188171386719,-0.12430016696453094,0.9825593829154968,0.21478156745433807
1778956144.9720414,0.09145980834960937,-10.007140045166016,-0.9810598754882813,-0.17659635841846466,0.8971235156059265,0.16574716567993164
1778956144.9941142,-0.30386810302734374,-10.2458935546875,-1.0879376220703125,-0.19829560816287994,0.8532953262329102,0.15139566361904144
1778956145.015785,-0.7550299072265625,-10.22912841796875,-0.8747808837890625,-0.1807449609041214,0.8475601673126221,0.16270184516906738
1778956145.0364773,-1.152902526855469,-9.783355407714843,-0.3879931640625,-0.1555134356021881,0.8667581677436829,0.20741260051727295
1778956145.0571995,-1.0539582824707032,-9.148525543212891,0.19639160156250002,-0.12394284456968307,0.8150139451026917,0.27007731795310974
1778956145.0776696,-0.8732839965820313,-9.65866470336914,1.967358856201172,0.17201828956604004,0.46886616945266724,0.25062477588653564
1778956145.0982397,-1.4721885681152345,-11.486813049316407,1.8790425109863282,-0.11541571468114853,0.5398996472358704,0.3008040487766266
1778956145.1188662,-1.469194793701172,-12.82532958984375,0.48933242797851567,-0.4786796569824219,0.5960143804550171,0.32295089960098267
1778956145.1418076,-1.3569282531738283,-13.091775512695314,0.8583151245117188,-0.1580968201160431,0.49657800793647766,0.16937915980815887
1778956146.2600114,0.8669970703125001,-9.59295135498047,0.007035369873046876,0.05032522603869438,0.009970617480576038,-0.052605681121349335
1778956146.284141,0.8614585876464844,-9.542805633544923,0.043858795166015624,0.18554037809371948,-0.031225282698869705,-0.01000550203025341
1778956146.3050234,0.7719447326660157,-9.63321762084961,0.18591339111328126,0.17039479315280914,-0.008158273063600063,0.030717967078089714
1778956146.3259158,1.0268646240234376,-9.653724975585938,0.29788055419921877,0.19592471420764923,-0.11500425636768341,-0.006927426904439926
1778956146.3483684,1.0677296447753908,-9.63890579223633,0.2639012145996094,0.23463715612888336,-0.229158416390419,-0.05074945092201233
1778956146.3680754,1.0138417053222657,-9.730515289306641,0.2016307067871094,0.2236112803220749,-0.2766932547092438,-0.0182330459356308
1778956146.3888853,0.9312135314941407,-9.716594238281251,0.1681004333496094,0.19103702902793884,-0.2592211067676544,0.03717239573597908
1778956146.4106812,1.1493099975585939,-9.751920776367188,0.4590953063964844,0.27440518140792847,-0.44462043046951294,0.03242530673742294
1778956146.431979,1.1114387512207031,-10.511441345214845,0.7801776123046875,0.26305627822875977,-0.562941312789917,0.04555123671889305
1778956146.4511669,0.6758445739746094,-11.494447174072267,-0.1694476318359375,-0.09230712056159973,-0.5722485780715942,0.1138533353805542
1778956146.4702218,-0.3116519165039063,-11.745774536132814,-2.040406951904297,-0.210491344332695,-0.5434825420379639,-0.005675190128386021
1778956146.4917297,-0.6765930175781251,-11.588601379394532,-1.5072157287597656,0.06936720013618469,-0.4437825083732605,-0.11852212250232697
1778956146.5117273,-0.47556106567382816,-10.306667175292969,0.07559280395507813,0.18742525577545166,-0.37417885661125183,0.027222558856010437
1778956146.5319347,-0.06331832885742188,-9.440867614746095,0.8440946960449219,0.14702744781970978,-0.49499788880348206,0.14862969517707825
1778956146.5524905,-0.36359390258789065,-9.711953887939453,0.6770420837402344,0.013577680103480816,-0.6845148801803589,0.18291175365447998
1778956146.5751352,-1.0409353637695313,-9.994266815185547,-0.3011737060546875,-0.059061769396066666,-0.7633824944496155,0.18135754764080048
1778956146.595806,-1.555565185546875,-9.845027160644532,-1.0702743530273438,-0.05883163586258888,-0.7022832632064819,0.14627279341220856
1778956146.615881,-1.6357983398437501,-9.379046173095704,-1.3485456848144532,-0.004000907763838768,-0.6258136034011841,0.11397184431552887
1778956146.6356983,-1.3253439331054688,-8.5981201171875,-0.8270301818847656,0.02474423497915268,-0.6235354542732239,0.11014621704816818
1778956146.6591344,-0.8990304565429688,-8.151149597167969,0.6795867919921875,-0.009907699190080166,-0.7711766958236694,0.14641472697257996
1778956146.67804,-0.959055633544922,-8.824748840332031,1.1982582092285157,-0.020102720707654953,-0.8287035226821899,0.2024516463279724
1778956146.7004192,-1.5036231994628908,-9.65327590942383,1.0624905395507813,-0.04437781870365143,-0.7549040913581848,0.3040078282356262
1778956146.7221987,-1.976938934326172,-10.434201965332031,0.5734574890136719,-0.058236438781023026,-0.6557998657226562,0.38025519251823425
1778956146.743612,-2.0362156677246093,-10.705288238525391,0.22438339233398438,0.0024652471765875816,-0.6894727349281311,0.30955010652542114
1778956146.7662268,-2.039658508300781,-10.578651580810547,0.19564315795898438,0.07499875873327255,-0.6824690699577332,0.22849975526332855
1778956146.7874298,-1.6100518798828125,-9.919272766113282,0.5444178771972656,0.09540218859910965,-0.6536011695861816,0.23447881639003754
1778956146.808744,-1.4864089965820313,-8.90707763671875,0.9557624816894532,0.11113385856151581,-0.6511948704719543,0.2868701219558716
1778956146.830008,-1.5576608276367188,-8.680598602294923,0.9298663330078125,0.1161954253911972,-0.7148987054824829,0.2422022521495819
1778956146.8517842,-1.5132032775878907,-8.997639312744141,0.678988037109375,0.21097946166992188,-0.7565227150917053,0.2175099402666092
1778956146.8706589,-1.6540603637695312,-9.412127380371095,0.8840615844726563,0.35571396350860596,-0.77147376537323,0.15293309092521667
1778956146.8907833,-1.8592835998535158,-9.358089752197266,0.8205935668945313,0.5299822688102722,-0.8107385635375977,0.04228381812572479
1778956146.9146569,-1.5414944458007813,-9.042695617675781,0.7833210754394532,0.7255750894546509,-0.9805184006690979,-0.06158187985420227
1778956146.9360547,-1.4979350280761718,-9.419911193847657,1.1933184814453126,0.7565064430236816,-1.2166509628295898,-0.1939558982849121
1778956146.9558282,-1.9116746520996095,-9.050928497314453,0.9136999511718751,0.4844892919063568,-0.9543070793151855,0.03827868029475212
1778956146.9820585,-1.6076568603515626,-8.904981994628907,1.5167958068847658,0.3426096439361572,-0.9807834625244141,0.26876944303512573
1778956147.0019672,-1.7437239074707032,-9.795031127929688,0.4785548400878907,0.1570148766040802,-0.6406373381614685,0.3704209327697754
1778956147.0218651,-1.986369323730469,-9.855804748535157,1.1573931884765625,-0.01622585579752922,-0.7648459672927856,0.4364582598209381
1778956147.042406,-1.7862355041503908,-9.164392547607422,0.6599775695800781,-0.37973061203956604,-0.8527584075927734,0.1456940919160843
1778956147.0640442,-2.2674847412109376,-7.128326568603516,0.21869522094726562,-0.7117176651954651,-0.8317212462425232,-0.05135320872068405
1778956147.08529,-3.270399169921875,-6.7053062438964846,-0.4243675231933594,-1.7201347351074219,-0.3315002918243408,0.26088032126426697
1778956147.1109407,-2.592159576416016,-6.0167381286621096,-0.162861328125,-2.444410800933838,-0.7758298516273499,0.7902141809463501
1778956147.132061,-1.478924560546875,-5.338199157714844,-0.094603271484375,-2.579974412918091,-0.6672943830490112,0.9162139296531677
1778956147.1532688,-1.2123289489746094,-4.091441802978516,0.8455915832519532,-2.901547431945801,-1.1514458656311035,1.1851434707641602
1778956147.174332,-0.31150222778320313,-4.566404113769532,1.1373348999023438,-3.7469983100891113,-1.5064024925231934,1.208010196685791
1778956147.2058947,-1.7700691223144531,-3.6874319458007814,-6.40667724609375,-2.270554780960083,-0.4145813584327698,-0.007622499018907547
1778956147.2281315,-0.41703277587890625,-0.0461041259765625,-1.908680877685547,-2.0552306175231934,-0.43560168147087097,-0.048465535044670105
1778956147.249999,-0.8957373046875,0.850082244873047,-0.5426216125488281,-1.4228429794311523,-0.4366065561771393,0.02569444850087166
1778956147.2718384,0.9000782775878907,-0.2165995788574219,0.5680686950683594,-0.6879833340644836,-0.7361133694648743,0.4014858901500702
1778956147.2917142,2.8213330078125,-3.916904754638672,1.756597137451172,-0.5324641466140747,-1.4109891653060913,0.19266106188297272
1778956147.3120046,2.251168670654297,-6.861132202148438,-0.4183799743652344,-0.7185658812522888,-1.5841410160064697,-0.04474244266748428
1778956147.3322616,-0.7785310363769532,-9.327104187011718,-3.0924192810058595,-1.2744336128234863,-1.5083502531051636,0.24752245843410492
1778956147.3526351,-2.528092803955078,-9.414971466064454,-6.018235015869141,-1.5223301649093628,-1.4289393424987793,0.3659108877182007
1778956147.3736386,-2.6734405517578126,-9.184301147460937,-6.384373626708984,-1.629183292388916,-1.282332420349121,0.33934688568115234
1778956147.394916,-4.146078186035156,-9.30749496459961,-4.7470783996582036,-1.5070868730545044,-1.076080083847046,0.2722163200378418
1778956147.4153795,-3.8408628845214845,-10.247689819335937,-4.96487548828125,-1.2538176774978638,-1.0784207582473755,0.18519409000873566
1778956147.4369042,-3.3160542297363285,-11.461216278076172,-5.075794830322266,-1.3337339162826538,-1.2452267408370972,0.16368800401687622
1778956147.4585931,-3.901337127685547,-11.696826324462892,-5.746849365234375,-1.6778216361999512,-1.3405660390853882,0.43475812673568726
1778956147.4818377,-5.025649108886719,-10.182575225830078,-5.344486083984375,-1.8194658756256104,-1.3780146837234497,0.5329286456108093
1778956147.5034199,-2.5665628051757814,-12.771591339111328,-5.743556213378906,-1.435688853263855,-1.7786171436309814,-0.04203558713197708
1778956147.5267136,-2.561623077392578,-14.406790924072267,-6.370602264404297,-1.669589638710022,-1.8593589067459106,-0.17864669859409332
1778956147.5490232,-4.331093444824219,-12.06985061645508,-6.785838775634766,-1.7013614177703857,-1.810530424118042,-0.028903542086482048
1778956147.5703988,-5.043462066650391,-9.129664764404298,-6.843618621826172,-1.4045931100845337,-1.7505477666854858,0.16740284860134125
1778956147.5963423,-3.6919226074218754,-11.756252746582032,-4.6044250488281255,-1.9560123682022095,-1.9934301376342773,0.12796224653720856
1778956147.6164508,-3.2721954345703126,-10.589279479980469,-5.118755493164063,-2.5000946521759033,-2.4709906578063965,0.5365039110183716
1778956147.6359594,-5.546565856933594,-9.341324615478516,-9.809401245117188,-2.042515277862549,-2.484128713607788,0.720884382724762
1778956147.6559074,-5.665269012451172,-10.103240203857423,-9.732311553955078,-1.6504944562911987,-2.198956251144409,0.4824627637863159
1778956147.6763906,-3.7878730773925784,-10.92413314819336,-6.729106750488282,-1.6333101987838745,-2.1027910709381104,0.29189127683639526
1778956147.6961286,-2.7928921508789064,-8.665030975341796,-3.5581008911132814,-2.1387062072753906,-2.0404608249664307,0.3558633327484131
1778956147.7170978,-8.794062652587892,-10.451715545654297,-8.461753692626953,-1.680047631263733,-0.9967625737190247,-0.12875238060951233
1778956147.7374763,-13.163925476074219,-14.805561676025391,-19.780166931152344,0.5212112665176392,0.6855410933494568,-0.1317921131849289
1778956147.7585588,-10.553503875732423,-10.001900939941407,-11.484717407226563,0.7258387804031372,0.9645341634750366,0.4991118013858795
1778956147.7785506,-10.493329010009766,-4.387975158691407,-1.214125213623047,-0.1128559336066246,0.6746360659599304,0.2823707163333893
1778956147.7996244,-15.277829589843751,-3.8239480590820314,-0.8554710388183594,-0.22208228707313538,0.6481266617774963,-0.6238046884536743
1778956147.8234804,-9.213041381835938,-6.2983026123046875,-5.785618743896484,-0.5041055083274841,-0.31130605936050415,-0.8809508085250854
1778956147.8522959,-3.0555958557128906,-4.660408630371094,-5.325176239013672,-0.5842654705047607,-1.6752599477767944,-0.7034715414047241
1778956147.8731346,-2.33514404296875,-2.561473388671875,-5.162464599609375,-1.2723524570465088,-2.135880708694458,-0.4417009651660919
1778956147.8966174,-5.043312377929688,-0.5610333251953126,-7.125781860351563,-2.316662311553955,-2.1732921600341797,0.11501394957304001
1778956147.9154403,-10.844947814941406,-1.4206956481933595,-11.187285919189454,-0.8896940350532532,-0.7175036668777466,-0.4449729025363922
1778956147.9401963,-3.2168106079101566,-3.065475311279297,-5.716163177490235,-0.8031037449836731,-0.38440990447998047,-0.0038586268201470375
1778956147.9718516,-6.527625732421876,-6.951993255615235,-6.181994476318359,-1.1191115379333496,-0.11886894702911377,-0.05187541991472244
1778956147.9924085,-4.775968322753907,-7.110962677001954,-3.0780491638183594,-1.0757752656936646,-0.3562767505645752,-0.17951807379722595
1778956148.0133512,-1.6263679504394533,-3.952530670166016,-1.562600555419922,-1.099372386932373,-0.7962198853492737,0.4704061448574066
1778956148.033128,-2.5930577087402344,-2.2634431457519533,-2.29682373046875,-1.0577143430709839,-0.7708353400230408,0.9879150986671448
1778956148.0544891,-4.596192169189453,-1.7082476806640625,-3.459456024169922,-1.201612114906311,-0.566972553730011,1.099158763885498
1778956148.0755184,-4.406087493896485,0.05433700561523438,-6.611601104736328,-1.0816402435302734,-0.08732491731643677,1.4023988246917725
1778956148.0974927,-5.7121215820312505,-4.651277618408203,-7.618706817626953,-0.4148821532726288,0.698358416557312,0.8328940868377686
1778956148.119559,-9.521100769042969,-10.25741958618164,-4.3858795166015625,-0.46370336413383484,1.8364605903625488,-0.8241883516311646
1778956148.14199,-6.066883850097657,-4.612957305908203,-5.822591857910156,-0.030983950942754745,1.782821774482727,-0.5534626245498657
1778956148.1642704,-6.971303100585938,-0.018711090087890625,-5.211263122558594,0.005352631211280823,1.4876229763031006,0.356430321931839
1778956148.2248085,-7.053631896972656,-4.528383178710937,-5.790558471679688,0.26450708508491516,1.6485919952392578,0.16945724189281464
1778956148.2484446,-5.369933166503906,-3.2015423583984375,-5.987698516845703,0.01652776077389717,0.8386967182159424,0.5108204483985901
1778956148.269153,-7.412735137939453,-0.8342152404785157,-7.823930053710938,0.14576952159404755,0.7526777386665344,0.9215397834777832
1778956148.290583,-7.787855072021485,-0.1776805114746094,-11.133098602294922,0.28629109263420105,0.967857301235199,1.2735702991485596
1778956148.313341,-8.885672149658204,-0.19429595947265627,-8.755892028808594,-0.003657327499240637,1.4552468061447144,1.088619589805603
1778956148.333232,-5.712870025634766,0.9234297180175782,-3.5250196838378907,-0.5349287986755371,1.288858413696289,1.1023348569869995
1778956148.3537056,-3.753744049072266,0.34203872680664066,-5.256469116210938,-0.6583353877067566,1.0518765449523926,1.518818974494934
1778956148.374443,-5.41034912109375,-1.0921289062500001,-9.87271957397461,-0.2357112467288971,1.4398643970489502,1.5909717082977295
1778956148.3932705,-5.732030181884766,-3.061733093261719,-9.026978302001954,-0.15154437720775604,1.8471112251281738,1.2265410423278809
1778956148.4130425,-4.527485046386719,-3.064277801513672,-6.71129379272461,-0.29845935106277466,1.9323198795318604,1.0155062675476074
1778956148.4344025,-3.0219158935546875,-0.6843768310546875,-5.287903747558594,-0.9975313544273376,1.6706465482711792,1.086809754371643
1778956149.5184088,-4.986131286621094,-6.665938110351563,-3.7506005859375002,0.32222747802734375,-1.0838385820388794,-0.2761732339859009
1778956149.5436583,-4.866080932617188,-6.201304321289062,-3.5980677795410156,0.3222382664680481,-1.100256085395813,-0.19904863834381104
1778956149.5647957,-5.133125610351563,-6.4057791137695315,-4.185745697021485,0.286183625459671,-0.9604384899139404,-0.165842205286026
1778956149.5848348,-5.341492309570313,-6.400390319824219,-4.118535461425782,0.27040088176727295,-0.8258486390113831,-0.18276764452457428
1778956149.6071322,-5.291945343017578,-6.429429931640625,-3.6212695312500003,0.27859827876091003,-0.7058594226837158,-0.14069637656211853
1778956149.6297784,-5.655090179443359,-6.669979705810547,-3.1889685058593753,0.3568613827228546,-0.4676509499549866,-0.11137097328901291
1778956149.6515565,-5.3651431274414065,-6.735693054199219,-3.0491592407226564,0.39893200993537903,-0.35850948095321655,-0.09069313108921051
1778956149.6728609,-5.5146821594238284,-6.878645782470704,-2.964884490966797,0.40609991550445557,-0.2431594580411911,-0.0836288332939148
1778956149.6930091,-5.382656707763672,-6.9305877685546875,-3.0997540283203127,0.40766221284866333,-0.1602596789598465,-0.05685020238161087
1778956149.7393818,-5.2082693481445315,-6.748266906738282,-3.3757800292968754,0.3529403507709503,0.07675892859697342,-0.07120173424482346
1778956149.760631,-5.287155303955078,-6.574478302001953,-3.1081365966796874,0.4109341502189636,0.11041579395532608,0.04458613693714142
1778956149.784824,-5.822442169189453,-6.770271148681641,-3.071163482666016,0.38802456855773926,0.22736120223999023,0.15257945656776428
1778956149.8055804,-6.12451400756836,-7.081174621582032,-3.2944990539550782,0.3573569655418396,0.3701711595058441,0.11323761194944382
1778956149.826491,-5.742658081054688,-7.534581756591797,-2.917283477783203,0.3806583285331726,0.40663883090019226,0.01713320054113865
1778956149.8492463,-5.869444427490235,-7.523355102539063,-2.429747314453125,0.25700390338897705,0.43907368183135986,0.048329468816518784
1778956149.8706834,-6.085744628906251,-7.192692718505859,-3.1859747314453126,0.2564053237438202,0.4366195797920227,0.04925757646560669
1778956149.890849,-6.11448486328125,-6.845564575195313,-3.3329690551757816,0.25296181440353394,0.46360403299331665,0.02530219405889511
1778956149.911353,-5.844745788574219,-7.398814086914063,-2.3207739257812503,0.10166200995445251,0.39454948902130127,-0.09204068779945374
1778956149.9667742,-5.946534118652344,-8.011040954589845,-3.4063165283203127,0.1581193208694458,0.14497573673725128,-0.06263966113328934
1778956149.9895277,-5.931714935302734,-6.96711181640625,-3.13987060546875,0.052905209362506866,0.09481470286846161,-0.06226041167974472
1778956150.0112455,-5.750591583251953,-6.909781036376954,-2.2848486328125,-0.0024706153199076653,-0.017550604417920113,-0.09848581254482269
1778956150.0316865,-5.915548553466797,-7.358547821044922,-2.2378463745117188,-0.047524601221084595,-0.08748392760753632,-0.1421126425266266
1778956150.0540721,-6.287075958251953,-7.832761688232423,-2.502645721435547,-0.0979241281747818,-0.1502397209405899,-0.24838635325431824
1778956150.0756385,-6.213578796386719,-7.418423309326172,-2.531385955810547,-0.14507173001766205,-0.22617699205875397,-0.31435951590538025
1778956150.0963068,-6.631809082031251,-6.968608703613282,-2.5128245544433594,-0.24817433953285217,-0.21256327629089355,-0.32970356941223145
1778956150.1186564,-6.416556701660157,-7.29283447265625,-2.7343638610839847,-0.22568164765834808,-0.21298404037952423,-0.3678978383541107
1778956150.171881,-5.9323136901855476,-7.850424957275391,-2.9162356567382814,-0.2067067176103592,-0.20423147082328796,-0.4017578065395355
1778956150.1933303,-5.154231719970704,-7.595355377197266,-2.4517515563964847,-0.30279770493507385,-0.40558701753616333,-0.4045224189758301
1778956150.2154999,-5.598358154296875,-7.631430358886719,-2.937641143798828,-0.2437497079372406,-0.2606584429740906,-0.45557788014411926
1778956150.2386634,-5.3332594299316405,-7.882608032226563,-2.7788214111328124,-0.29870012402534485,-0.1617559790611267,-0.500380277633667
1778956150.259294,-4.7009742736816404,-7.970026245117188,-2.784509582519531,-0.38557881116867065,-0.1112465187907219,-0.5377331972122192
1778956150.280908,-4.494852905273437,-7.695796508789063,-2.6861640930175783,-0.40025389194488525,-0.07313304394483566,-0.5869505405426025
1778956150.3032832,-4.602179718017578,-7.711364135742188,-3.118016052246094,-0.27331772446632385,0.029276421293616295,-0.6586197018623352
1778956150.322908,-4.487667846679687,-7.605384521484376,-3.347788238525391,-0.11824683099985123,0.1512793004512787,-0.6584358811378479
1778956150.3489087,-3.988455963134766,-7.729626159667969,-3.534749450683594,0.10557466745376587,0.35824480652809143,-0.5550927519798279
1778956150.3694828,-3.468886413574219,-7.722740478515625,-2.9196784973144534,0.10516542196273804,0.4061114192008972,-0.4215205907821655
1778956150.3929682,-3.2856674194335938,-8.436007232666016,-2.512225799560547,-0.055942390114068985,0.3464703857898712,-0.21654745936393738
1778956150.4142284,-4.911137237548829,-10.834918670654297,-3.158731384277344,-0.6361598968505859,0.3740355372428894,0.1104881763458252
1778956150.436554,-5.723797302246094,-10.195598144531251,-6.406527557373047,-0.4092061519622803,0.6657397150993347,-0.07341853529214859
1778956150.4571052,-4.599635009765625,-6.0881396484375,-7.162754974365234,0.54176926612854,0.886263906955719,-0.18740609288215637
1778956150.4775624,-2.857407989501953,-4.9582891845703125,-2.985242156982422,0.7256835699081421,0.654060423374176,-0.0011411262676119804
1778956150.4987319,-3.25004150390625,-6.973099365234376,-0.24084915161132814,0.17801186442375183,0.2609637677669525,0.09668316692113876
1778956150.5192645,-4.383783874511719,-8.382119293212892,-1.9296372985839845,-0.12267202883958817,0.12547671794891357,0.12141700088977814
1778956150.593434,-4.715643768310547,-7.6455010986328125,-4.951702880859375,0.03331485390663147,0.25622469186782837,-0.0668967142701149
1778956150.6618037,-3.985162811279297,-8.754095764160157,-3.2446527099609375,-0.11916133761405945,-0.0365176647901535,-0.1462690234184265
1778956150.7296853,-3.7029995727539062,-7.673941955566407,-3.9941441345214845,-0.10008416324853897,-0.03927985206246376,-0.131267711520195
1778956150.7877433,-4.094136199951172,-8.79017074584961,-3.7618272399902346,-0.09725431352853775,-0.0400012768805027,-0.15022890269756317
1778956150.8429115,-3.9284307861328127,-8.201594696044923,-4.0020776367187505,-0.13609394431114197,-0.06251082569360733,-0.08589357137680054
1778956150.8669713,-4.145928497314453,-8.944649505615235,-4.131558380126953,-0.07606431841850281,0.04415660724043846,-0.08652739971876144
1778956150.8887246,-3.783681793212891,-8.558003540039063,-4.088897094726563,-0.05453401803970337,0.10960716754198074,-0.0738249123096466
1778956150.9114654,-3.32668212890625,-7.581584014892578,-3.8251455688476566,-0.04458800330758095,0.10951633006334305,0.057616718113422394
1778956150.9323387,-3.9242395019531253,-7.876171417236328,-4.074526977539063,-0.0010120593942701817,0.17978736758232117,0.07833746075630188
1778956150.9530923,-4.184997253417969,-8.527916107177735,-4.078119506835938,0.0528484582901001,0.25259241461753845,0.0661684200167656
1778956150.976323,-4.002377014160157,-8.74945541381836,-3.908821563720703,0.10376936197280884,0.25478237867355347,0.11834610998630524
1778956150.9990242,-3.9703436279296875,-8.69481903076172,-3.936064910888672,0.1491502821445465,0.21484826505184174,0.1819695681333542
1778956151.0188956,-3.895199890136719,-8.575816497802736,-4.143683166503907,0.20107997953891754,0.1769997924566269,0.20867149531841278
1778956151.0394351,-3.9074743652343753,-8.511899414062501,-4.407434692382813,0.31324899196624756,0.15001195669174194,0.201127290725708
1778956151.0614321,-4.5920008850097656,-8.678802337646484,-4.052672424316406,0.45478788018226624,0.197098046541214,0.12041246891021729
1778956151.0829496,-4.4595263671875,-8.85872817993164,-3.332519989013672,0.4228626787662506,0.15591241419315338,0.07205772399902344
1778956151.1043253,-4.273014221191406,-8.571924591064453,-3.5582505798339845,0.3707786202430725,0.10773349553346634,0.08347281813621521
1778956151.1251037,-4.348756713867187,-8.375982055664062,-3.7880227661132815,0.2915419340133667,0.08216189593076706,0.056486740708351135
1778956151.1452553,-4.183500366210938,-8.159981231689454,-3.8872663879394533,0.22009417414665222,0.06907249242067337,0.004196912981569767
1778956151.1666727,-3.8285884094238285,-8.263715515136719,-3.6315980529785157,0.2207581251859665,-0.05582258850336075,0.02225847914814949
1778956151.1869564,-3.926185455322266,-8.692573699951172,-4.106111297607422,0.2645214796066284,-0.10157956182956696,0.17491832375526428
1778956151.2076948,-4.619244232177735,-9.243727569580079,-4.980592803955078,0.37601301074028015,-0.0535159558057785,0.21511448919773102
1778956151.2303784,-4.50982177734375,-8.787476348876954,-4.685706024169922,0.3554874360561371,-0.0020917565561830997,0.2909753918647766
1778956151.2495975,-4.5162583923339845,-8.688382415771486,-4.408033447265625,0.3259689211845398,0.00462400121614337,0.28015342354774475
1778956151.268736,-4.782255249023438,-9.018296356201173,-4.109703826904297,0.2834565341472626,0.02919568121433258,0.26512598991394043
1778956151.2902827,-5.454058227539063,-9.783505096435547,-4.118535461425782,0.22698162496089935,0.10821790993213654,0.19507230818271637
1778956151.311781,-5.496869201660156,-9.610614624023437,-3.776496734619141,0.17860563099384308,0.12642759084701538,0.16793124377727509
1778956151.331805,-5.1308802795410156,-9.061706085205078,-3.4961297607421877,0.1502266228199005,0.0920446366071701,0.17596468329429626
1778956151.3530598,-4.814737701416016,-8.778794403076173,-3.4169444274902347,0.04269672930240631,0.07168140262365341,0.14119312167167664
1778956151.3770773,-4.922812957763672,-8.817414093017579,-3.7449124145507815,-0.008478107862174511,0.08496291190385818,0.09074671566486359
1778956151.399028,-4.762646026611328,-8.69242401123047,-3.9368133544921875,-0.08482161909341812,0.16991497576236725,0.1773977279663086
1778956151.4235733,-4.4423121643066406,-8.676856384277345,-4.010310516357422,-0.03335798904299736,0.17268534004688263,0.18760588765144348
1778956151.4432108,-4.2203237915039065,-8.638236694335937,-3.643872528076172,-0.06585569679737091,0.15158554911613464,0.13581113517284393
1778956151.4652994,-4.448898468017578,-8.37822738647461,-3.3497341918945316,-0.16913199424743652,0.17766015231609344,0.11525952070951462
1778956151.4855137,-4.4881169128417975,-7.998616790771485,-3.5161880493164066,-0.19870661199092865,0.21008805930614471,0.12865601480007172
1778956151.5058753,-4.016747131347657,-8.15070053100586,-3.8838235473632814,-0.04851338639855385,0.2187601625919342,0.10926636308431625
1778956151.5259557,-3.9080731201171877,-8.776848449707032,-3.3043785095214844,-0.05561475455760956,0.22116795182228088,0.10155808925628662
1778956151.5466151,-4.106111297607422,-9.029223632812501,-3.1154713439941406,-0.12321814894676208,0.22613175213336945,0.07987570762634277
1778956151.5701516,-4.358935546875,-8.128247222900391,-3.450923767089844,-0.03923849016427994,0.3232593834400177,0.1343541145324707
1778956151.591345,-4.183500366210938,-8.016878814697266,-3.2651600646972656,-0.0030720625072717667,0.31609347462654114,0.13901224732398987
1778956151.6128063,-4.255949707031251,-8.308023376464844,-3.186423797607422,-0.015290185809135437,0.3317483365535736,0.11085332930088043
1778956151.633871,-4.469854888916016,-8.695417785644532,-2.639012145996094,-0.10478638857603073,0.3409205973148346,0.04897983372211456
1778956151.65516,-4.4087818908691405,-8.701854400634765,-2.603236541748047,-0.18769130110740662,0.3211778998374939,-0.023164130747318268
1778956151.6768205,-4.356241149902344,-8.407266998291016,-3.348087615966797,-0.05773726850748062,0.278597354888916,-0.14256536960601807
1778956151.7004788,-4.3084904479980475,-8.518186340332031,-3.450774078369141,-0.0264920424669981,0.2701224088668823,-0.09642260521650314
1778956151.721275,-4.106111297607422,-8.61772933959961,-3.504811706542969,-0.054915573447942734,0.23323360085487366,0.0240025594830513
1778956151.743476,-3.836222534179688,-8.869805145263673,-3.583547973632813,-0.16034552454948425,0.18538974225521088,0.1068497970700264
1778956151.7636697,-3.4682876586914064,-8.453371124267578,-3.726500701904297,-0.23799176514148712,0.1291700303554535,0.11365550756454468
1778956151.784131,-3.154091033935547,-8.201594696044923,-4.0109092712402346,-0.2444077730178833,0.08687049895524979,0.07041855156421661
1778956151.8035002,-3.1028974914550784,-7.9432319641113285,-4.208797760009766,-0.22616906464099884,0.1021919921040535,0.04873216524720192
1778956151.8258834,-3.7649707031250004,-7.829019470214845,-4.360582122802734,-0.13538901507854462,0.24327006936073303,0.023563440889120102
1778956151.8468285,-3.7076399230957033,-7.914491729736328,-4.270469512939453,-0.12244636565446854,0.3309643864631653,0.03986062854528427
1778956151.8664274,-3.7178187561035156,-8.112080841064454,-4.118685150146485,-0.14252132177352905,0.363090842962265,0.004273072816431522
1778956151.8876538,-3.7916152954101565,-7.918084259033203,-4.073628845214844,-0.11769020557403564,0.3603835105895996,-0.051621608436107635
1778956151.90933,-3.8913079833984376,-7.6257421875,-4.174818420410157,-0.05274655669927597,0.3157191276550293,-0.024870678782463074
1778956151.933322,-4.085005187988282,-7.9504170227050786,-4.398603057861329,0.004510900937020779,0.3444507420063019,0.042618878185749054
1778956151.9531748,-3.9472915649414064,-7.974217529296875,-4.533622283935547,0.023590587079524994,0.46250003576278687,0.005248613655567169
1778956153.122185,-3.271297302246094,-9.196276245117188,-1.2856764221191408,0.1073525920510292,-0.13717074692249298,0.16306646168231964
1778956153.147988,-4.681065673828125,-9.045090637207032,-2.24892333984375,0.09939952939748764,0.0822155773639679,0.09687037020921707
1778956153.1666775,-4.500840454101563,-8.754993896484375,-2.4659719848632813,0.2451694905757904,0.17754775285720825,-0.016668694093823433
1778956153.1866727,-4.003424835205078,-8.663983154296876,-2.286944274902344,0.3174801766872406,0.1724241077899933,-0.011726933531463146
1778956153.205872,-3.3859588623046877,-8.779093780517579,-1.4810202026367187,0.3594995141029358,0.09389839321374893,0.08923110365867615
1778956153.229266,-4.9882269287109375,-8.793314208984375,-0.3209326171875,0.0884028971195221,-0.031787555664777756,0.007120249327272177
1778956153.2508063,-4.121978302001954,-9.059011688232422,-0.7144642639160157,-0.04016631096601486,-0.0018870937637984753,0.050034165382385254
1778956153.2716093,-4.054468688964844,-8.944050750732423,-1.0183323669433595,-0.030092250555753708,-0.02671712078154087,0.16696691513061523
1778956153.2912474,-3.859573974609375,-8.986412658691407,-1.2772938537597658,0.022319242358207703,-0.08472175151109695,0.2271871119737625
1778956153.314436,-3.7977525329589845,-9.046437835693359,-1.2150233459472657,0.024977877736091614,-0.18974828720092773,0.2855615019798279
1778956153.3339388,-4.423301696777344,-8.979377288818359,-0.8768765258789063,-0.039696745574474335,-0.2688678801059723,0.22256946563720703
1778956153.3529367,-4.717440032958985,-8.584049377441406,-0.6589297485351563,-0.10792253166437149,-0.3194548189640045,0.11685021221637726
1778956153.3721902,-4.172573089599609,-8.543334045410157,-0.760269012451172,-0.10515651851892471,-0.3770213723182678,0.08927372097969055
1778956153.3938334,-4.176614685058594,-8.884175262451173,-0.571212158203125,-0.11273594945669174,-0.4848920702934265,0.08582200109958649
1778956153.4165468,-4.490362243652344,-9.163943481445314,-0.6715036010742188,-0.11644086241722107,-0.5301707983016968,0.009051299653947353
1778956153.4395115,-4.626728668212891,-9.199569396972656,-0.6396199035644532,-0.08878112584352493,-0.5660068392753601,-0.11070732027292252
1778956153.460675,-4.520000610351563,-8.860075378417969,-0.6251000976562501,-0.0663444772362709,-0.6153109669685364,-0.16488666832447052
1778956153.4818263,-4.127516784667969,-8.48076416015625,-0.1359173583984375,-0.15372969210147858,-0.6911746263504028,-0.12057272344827652
1778956153.5035837,-4.022285614013672,-8.956774291992188,-0.3459306335449219,-0.1707797646522522,-0.7574059367179871,-0.08264210820198059
1778956153.524471,-4.234244842529297,-9.287137298583986,-0.566422119140625,-0.13486143946647644,-0.7916747331619263,-0.0761067271232605
1778956153.544452,-4.751868438720703,-9.108109588623048,-0.5334906005859376,-0.10559826344251633,-0.7561028003692627,-0.14068996906280518
1778956153.5665395,-4.412075042724609,-8.766519927978516,-0.5510041809082031,-0.10323139280080795,-0.7752721309661865,-0.1820877641439438
1778956153.5869513,-3.8516404724121096,-8.46115493774414,-0.4174818420410156,-0.11797791719436646,-0.8515985012054443,-0.13325203955173492
1778956153.6064913,-4.05521713256836,-8.429420928955079,-0.7598199462890626,-0.07503554224967957,-0.8413364887237549,-0.0729503408074379
1778956153.6273887,-4.438420257568359,-8.734187164306642,-0.5442681884765626,-0.06013748049736023,-0.8072047233581543,-0.09333230555057526
1778956153.649829,-4.476441192626953,-8.987759857177736,-0.346080322265625,-0.09429769963026047,-0.7996074557304382,-0.16465602815151215
1778956153.670897,-4.00686767578125,-8.819958801269532,-0.2640509033203125,-0.11206541210412979,-0.8650623559951782,-0.1586465835571289
1778956153.692051,-4.00447265625,-8.78448257446289,-0.1802252197265625,-0.13961246609687805,-0.9724273085594177,-0.15766018629074097
1778956153.7137573,-4.274062042236328,-8.858428802490234,-0.6845265197753907,-0.1620718091726303,-1.011812448501587,-0.16162718832492828
1778956153.737436,-4.706961822509766,-9.278006286621094,-0.985550537109375,-0.10069204866886139,-0.9013116955757141,-0.25195443630218506
1778956153.7573779,-4.47434555053711,-8.97309036254883,-0.7830216979980469,-0.05237123742699623,-0.8330802917480469,-0.29040971398353577
1778956153.7777352,-3.985462188720703,-8.594826965332032,-0.38080810546875005,-0.06867147982120514,-0.8236015439033508,-0.29045817255973816
1778956153.8000996,-4.138444061279297,-8.529412994384765,-0.016465759277343752,-0.12397395819425583,-0.8513716459274292,-0.314684122800827
1778956153.8223863,-4.002826080322266,-8.77729751586914,-0.130528564453125,-0.14609959721565247,-0.8643786907196045,-0.27454042434692383
1778956153.8426926,-4.061504058837891,-8.909023590087891,-0.27991790771484376,-0.1547851711511612,-0.8451758623123169,-0.20843438804149628
1778956153.8658888,-4.367018737792969,-8.679251403808594,-0.22707778930664063,-0.16794227063655853,-0.8217468857765198,-0.18349362909793854
1778956153.8858526,-4.342918853759766,-8.646768951416016,-0.10523117065429688,-0.16944704949855804,-0.7868912220001221,-0.21412396430969238
1778956153.9054022,-4.3062451171875,-8.749904479980469,-0.5769003295898438,-0.07605286687612534,-0.7959754467010498,-0.27811065316200256
1778956153.9254513,-4.310735778808594,-8.806786193847657,-0.3944297790527344,-0.10088938474655151,-0.7726958394050598,-0.28394728899002075
1778956153.9482663,-4.248914337158204,-8.813671875,-0.3112028503417969,-0.133290633559227,-0.7373544573783875,-0.237294003367424
1778956153.9695222,-4.362228698730469,-8.906628570556641,-0.3806584167480469,-0.10138165950775146,-0.6680794358253479,-0.24661773443222046
1778956153.9907796,-4.0213874816894535,-9.06035888671875,-0.13995895385742188,-0.12201891094446182,-0.5736650228500366,-0.21605929732322693
1778956154.0122223,-4.540058898925781,-9.698631591796875,-0.4105961608886719,-0.0175427608191967,-0.5726329684257507,-0.44115763902664185
1778956154.0341861,-3.100053405761719,-9.789941711425781,-0.17214202880859375,-0.025731472298502922,-0.6279972791671753,-0.43028581142425537
1778956154.086492,-2.9388386535644533,-9.714797973632812,-0.2076182556152344,-0.019324053078889847,-0.6591030955314636,-0.40261584520339966
1778956154.1081948,-2.1703367614746094,-9.595645751953125,0.09789642333984376,0.09448330849409103,-0.7259172201156616,-0.3416787087917328
1778956154.1294131,-2.497855682373047,-9.430988159179687,0.41388931274414065,-0.07961124181747437,-0.7248911261558533,-0.21203577518463135
1778956154.1518033,-2.029779052734375,-9.113199005126953,0.36793487548828124,-0.19542564451694489,-0.7329292297363281,-0.0650748461484909
1778956154.1731513,-1.4483880615234375,-9.325008544921875,0.5912704467773438,-0.16922225058078766,-0.7626718282699585,-0.004856498911976814
1778956154.193477,-1.4679972839355468,-9.593849487304688,0.5352868652343751,-0.08672899007797241,-0.8613317608833313,-0.034541696310043335
1778956154.2156577,-1.6754658508300782,-10.106233978271485,0.1526824951171875,-0.011645045131444931,-0.9011475443840027,-0.05727922171354294
1778956154.2632627,-1.7107923889160157,-10.031688995361328,0.6276448059082032,-0.317791223526001,-1.0167094469070435,-0.09298262745141983
1778956154.3143628,-1.7227674865722657,-9.44925018310547,0.23980133056640626,-0.4477471709251404,-1.1608158349990845,0.028653260320425034
1778956154.3354716,-1.9137702941894532,-9.591903533935547,-0.23531066894531252,-0.4094144403934479,-1.1294184923171997,0.0612008273601532
1778956154.3550534,-2.259251861572266,-9.904154205322266,-0.5289999389648438,-0.2876793146133423,-1.0613473653793335,-0.07226160913705826
1778956154.3760357,-1.8211129760742188,-9.918075256347656,-0.3555107116699219,-0.15438854694366455,-1.0776550769805908,-0.21523822844028473
1778956154.3981895,-1.0413844299316406,-9.759255523681642,0.08158035278320312,-0.12634499371051788,-1.1170798540115356,-0.16712582111358643
1778956154.4192975,-1.6645385742187502,-9.401948547363281,0.5981561279296875,-0.2456054836511612,-1.0831429958343506,-0.07926946133375168
1778956154.439662,-1.2710069274902345,-9.251062316894531,0.9407936096191407,-0.30360105633735657,-1.183805227279663,-0.07333700358867645
1778956154.4629552,-0.77838134765625,-9.149124298095703,0.882564697265625,-0.3631143867969513,-1.265628695487976,-0.0010282029397785664
1778956154.4853075,-0.9743238830566406,-9.356143798828125,0.5387297058105469,-0.3863120675086975,-1.2448304891586304,0.08561588823795319
1778956154.53331,-2.4351361083984377,-9.580676879882812,0.7021897888183594,-0.36331576108932495,-1.13337242603302,-0.07757063955068588
1778956154.555525,-2.16509765625,-9.741143188476563,0.7827223205566407,-0.3680843710899353,-1.1763461828231812,-0.10950595140457153
1778956154.5790274,-2.1710852050781253,-9.631421356201173,0.5481600952148438,-0.3874848484992981,-1.1791716814041138,-0.08319126069545746
1778956154.5998843,-1.1779005432128906,-9.952503662109375,0.0077838134765625,-0.24781133234500885,-1.1586898565292358,0.09274064004421234
1778956154.621956,-1.9490968322753908,-9.767937469482423,0.052690429687500005,-0.07313992828130722,-1.1914143562316895,0.10796009004116058
1778956154.6436079,-2.631078643798828,-9.558223571777344,0.8533753967285157,-0.16172116994857788,-1.2021665573120117,-0.05960440635681152
1778956154.665167,-3.6528538513183597,-9.845027160644532,-1.8935623168945312,0.13901515305042267,-1.0609097480773926,-0.197311669588089
1778956154.7927241,-2.1276754760742187,-9.251212005615235,1.0744656372070314,-0.7860099077224731,-1.1729302406311035,0.29263749718666077
1778956154.851984,-2.4111859130859377,-9.479786682128907,0.6773414611816406,-0.12136870622634888,-0.9254018068313599,0.12066762149333954
1778956154.919361,-2.8431875610351565,-10.025252380371095,0.5863307189941407,-0.2680319547653198,-1.1075265407562256,0.022390319034457207
1778956154.9880853,-1.93757080078125,-9.393865356445312,0.6409671020507813,-0.22186321020126343,-0.979717493057251,0.086273692548275
1778956155.018677,-2.3080503845214846,-10.077194366455078,1.2006532287597658,-0.4448719322681427,-1.0808850526809692,0.11850326508283615
1778956155.0407717,-2.012564849853516,-10.875035247802735,0.8084687805175782,-0.7945520877838135,-1.1431676149368286,0.1442166417837143
1778956155.0652826,-2.4933650207519533,-10.56443115234375,-0.6267466735839844,-0.9842590093612671,-1.1743671894073486,0.08883249014616013
1778956155.0853014,-3.373235321044922,-9.803713073730469,-2.336042175292969,-0.43672239780426025,-0.9734939336776733,-0.1620013564825058
1778956155.1054149,-3.0196705627441407,-9.475296020507812,-0.8833131408691407,-0.24258260428905487,-0.8748236298561096,-0.19832077622413635
1778956155.1263688,-1.7507592773437501,-9.552535400390626,0.8975335693359375,-0.3731515109539032,-0.9591972827911377,-0.06600984930992126
1778956155.1481228,-1.3418096923828127,-9.3262060546875,1.3585748291015625,-0.6187491416931152,-1.096434235572815,0.1110493540763855
1778956155.2001455,-2.654579772949219,-9.797276458740235,-0.7737409973144531,-0.4651287794113159,-1.2161931991577148,0.22479215264320374
1778956155.2226915,-3.0038035583496097,-9.780960388183594,-0.6483018493652344,-0.5340890288352966,-1.2248709201812744,0.22754187881946564
1778956155.243317,-3.4753230285644534,-9.098978576660157,-1.3677058410644531,-0.6541803479194641,-1.232677698135376,0.20264610648155212
1778956155.264613,-3.7140765380859375,-8.739875335693359,-1.982776794433594,-0.5549575090408325,-1.2174413204193115,0.13375812768936157
1778956155.28588,-4.002227325439454,-8.441096649169923,-1.9845730590820314,-0.38025540113449097,-1.1566742658615112,0.041571471840143204
1778956155.310529,-3.9004389953613283,-8.660540313720704,-1.577120361328125,-0.16953040659427643,-1.1206859350204468,-0.021584587171673775
1778956155.3307366,-3.300486602783203,-9.063652038574219,-0.34682876586914063,-0.1950964331626892,-1.1897084712982178,-0.033582381904125214
1778956155.3502245,-3.3606614685058593,-9.597442016601564,0.0431103515625,-0.394741415977478,-1.2273653745651245,-0.014980228617787361
1778956155.372731,-3.321742401123047,-9.863289184570313,-0.5180726623535157,-0.4304269254207611,-1.2953922748565674,0.09450525790452957
1778956155.3955474,-3.4097593688964847,-9.770332489013672,-0.5965095520019531,-0.39279571175575256,-1.4332048892974854,0.10087103396654129
1778956155.4153051,-3.645070037841797,-9.483379211425781,-0.7785310363769532,-0.3078311085700989,-1.4422872066497803,0.04564477503299713
1778956155.4351802,-3.5657350158691408,-9.350755004882814,-0.5872288513183594,-0.29905402660369873,-1.413010835647583,0.029996300116181374
1778956155.4555862,-3.2320788574218753,-9.080117797851562,-0.20252883911132813,-0.33771032094955444,-1.4015157222747803,0.00851738452911377
1778956155.4760482,-3.0552964782714844,-8.835526428222657,-0.019609222412109377,-0.352920264005661,-1.4226661920547485,-0.00973351951688528
1778956155.4972,-3.047812042236328,-8.60485610961914,0.14669494628906252,-0.3767114579677582,-1.440752625465393,-0.013139693066477776
1778956155.5212197,-3.3796719360351566,-8.656947784423828,-0.20432510375976565,-0.34423983097076416,-1.3589165210723877,-0.03081430494785309
1778956155.5425289,-3.2263906860351566,-8.542286224365235,-0.21989273071289064,-0.2672044634819031,-1.2230031490325928,-0.05410445109009743
1778956155.56566,-3.0657746887207034,-8.552914123535157,0.2559677124023438,-0.3082426190376282,-1.1779730319976807,-0.10248716920614243
1778956155.5855699,-3.2626153564453126,-8.601562957763672,0.4174818420410156,-0.3365709185600281,-1.1307594776153564,-0.13681265711784363
1778956155.606528,-3.6884797668457034,-8.750503234863281,-0.032183074951171876,-0.29179373383522034,-1.0119798183441162,-0.1397775560617447
1778956155.6280398,-3.6907250976562502,-8.740025024414063,-0.20028350830078126,-0.23002447187900543,-0.8669350147247314,-0.11318109184503555
1778956156.961197,-3.6923716735839847,-9.050329742431641,0.39712417602539063,-0.11736605316400528,-0.9338831305503845,0.19914326071739197
1778956157.0158558,-3.1606773376464847,-8.889414367675782,0.3718267822265625,-0.10334165394306183,-0.7436732649803162,0.1514979600906372
1778956157.0522504,-3.0050010681152344,-8.743617553710937,0.4544549560546875,-0.17230558395385742,-0.7242021560668945,0.12864084541797638
1778956157.078111,-3.29794189453125,-8.983269195556641,0.46478347778320317,-0.21112960577011108,-0.7317971587181091,0.08861937373876572
1778956157.107752,-3.4780174255371095,-9.300908660888672,0.45340713500976565,-0.2414398193359375,-0.6290671229362488,0.04560960829257965
1778956157.1401174,-3.1978001403808594,-9.05601791381836,0.7361691284179688,-0.19548723101615906,-0.576501190662384,-0.00931544415652752
1778956157.1639183,-3.037034454345703,-9.047036590576173,0.9651928710937501,-0.13005046546459198,-0.5657783150672913,-0.01856832765042782
1778956157.1855805,-3.013832702636719,-8.994046783447265,0.9511221313476563,-0.12085387110710144,-0.5364072322845459,-0.001442057080566883
1778956157.2071211,-3.0994546508789065,-9.064250793457031,0.969833221435547,-0.13902994990348816,-0.5128290057182312,-0.004928390961140394
1778956157.2322543,-3.2314801025390625,-9.314081268310547,0.7747888183593751,-0.1468951404094696,-0.4447341561317444,-0.047759220004081726
1778956157.253871,-3.280877380371094,-9.327104187011718,0.8198451232910157,-0.10643668472766876,-0.41985461115837097,-0.10421743988990784
1778956157.2749932,-3.3344659423828125,-9.18295394897461,1.004561004638672,-0.10050180554389954,-0.39914724230766296,-0.15906096994876862
1778956157.29684,-3.364852752685547,-9.094936981201172,0.9285191345214844,-0.055479004979133606,-0.36526522040367126,-0.2048034369945526
1778956157.3192694,-3.1955548095703126,-9.04553970336914,0.8527766418457031,0.0011569401249289513,-0.33867156505584717,-0.2058146446943283
1778956157.3409038,-2.939736785888672,-9.464368743896484,1.176104278564453,-0.030316440388560295,-0.329275906085968,-0.17638668417930603
1778956157.363118,-2.978057098388672,-9.77302688598633,1.1305989074707032,-0.07488741725683212,-0.3193715810775757,-0.1569831818342209
1778956157.3850334,-3.1057415771484376,-9.840835876464844,1.1276051330566408,-0.08278771489858627,-0.33745405077934265,-0.182207852602005
1778956157.4066267,-3.071013793945313,-9.90624984741211,1.1707154846191408,-0.03600853681564331,-0.3608434498310089,-0.20382526516914368
1778956157.428538,-3.060984649658203,-10.137518920898438,1.2982502746582032,0.0042563993483781815,-0.3564678430557251,-0.17442980408668518
1778956157.4541698,-3.6480638122558595,-10.909014587402345,0.9954299926757812,-0.1916273832321167,-0.3252849578857422,-0.047902222722768784
1778956157.4769404,-4.0954833984375005,-11.120225372314454,-0.2954855346679688,-0.30302631855010986,-0.22922879457473755,-0.06739577651023865
1778956157.4976602,-3.8276902770996095,-10.62520477294922,-0.8961863708496094,-0.07666031271219254,-0.24737229943275452,-0.2125851809978485
1778956157.517579,-3.0063482666015626,-9.549092559814454,-0.016016693115234376,0.18899936974048615,-0.32341814041137695,-0.23931878805160522
1778956157.537846,-2.289039916992188,-8.41564956665039,1.5989749145507812,0.14088056981563568,-0.3936622142791748,-0.0756521001458168
1778956157.5626252,-2.195783843994141,-7.92511962890625,1.6600479125976564,-0.05783616751432419,-0.4926038384437561,0.11954376101493835
1778956157.5844948,-2.861748962402344,-8.539741516113281,0.7325765991210937,-0.08975662291049957,-0.5056012868881226,0.0748995915055275
1778956157.6063068,-3.261866912841797,-9.205856323242188,-0.00449066162109375,-0.17191895842552185,-0.504625678062439,-0.07622947543859482
1778956157.6273484,-3.373534698486328,-9.696236572265626,-0.5343887329101563,-0.26344698667526245,-0.5300220251083374,-0.2787942886352539
1778956157.6707819,-2.355651397705078,-9.228758697509766,-0.7846682739257813,-0.20446883141994476,-0.47928178310394287,-0.383795827627182
1778956157.6928601,-2.0514839172363284,-9.060957641601563,-0.4513114929199219,-0.14801213145256042,-0.46439510583877563,-0.2820713222026825
1778956157.715314,-1.8543438720703127,-9.250762939453125,-0.3546125793457031,-0.1165667399764061,-0.45362773537635803,-0.1627822071313858
1778956157.736823,-1.7354910278320312,-9.509275360107422,0.02365081787109375,-0.09142078459262848,-0.5289775133132935,-0.06290646642446518
1778956157.7604342,-1.7693206787109377,-10.021659851074219,0.4068539428710938,-0.14834514260292053,-0.7304583191871643,0.003384646028280258
1778956157.7814105,-2.117047576904297,-10.209219818115235,0.243094482421875,-0.23679891228675842,-0.7676270604133606,0.03360728174448013
1778956157.8024857,-2.279160461425781,-10.161768493652344,-0.15013778686523438,-0.301379531621933,-0.8193126916885376,0.012797338888049126
1778956157.8236496,-2.369722137451172,-9.880952453613281,-0.4721182250976563,-0.3368155062198639,-0.866786539554596,-0.03680989891290665
1778956157.846493,-2.2106030273437502,-9.515113220214845,-0.0999920654296875,-0.3547359108924866,-0.9128749370574951,-0.07246828824281693
1778956157.870198,-1.789977722167969,-9.130712585449219,0.38589752197265625,-0.3411991000175476,-0.9639225602149963,-0.04417648911476135
1778956157.889695,-1.6663348388671877,-9.12786849975586,0.35356475830078127,-0.34954625368118286,-0.9728258848190308,-0.0015030279755592346
1778956157.9114263,-1.7425263977050782,-9.350305938720703,0.1273851013183594,-0.3468685746192932,-0.9639459848403931,0.024670226499438286
1778956157.932406,-1.7524058532714846,-9.628277893066407,0.056582336425781254,-0.32418587803840637,-0.9739066362380981,0.016658388078212738
1778956157.9567037,-1.7784516906738281,-9.819131011962892,0.14953903198242188,-0.3216995894908905,-1.0273687839508057,0.004154600203037262
1778956157.9779515,-1.7926721191406252,-9.728120269775392,0.35670822143554687,-0.34947749972343445,-1.0670498609542847,0.00281901890411973
1778956157.9974318,-1.8467097473144531,-9.558373260498048,0.4129911804199219,-0.3417425751686096,-1.0717545747756958,0.03262137994170189
1778956158.0194318,-2.0246896362304687,-9.440867614746095,0.37676651000976563,-0.3074905574321747,-1.0518311262130737,0.0656171441078186
1778956158.0404665,-1.9767892456054688,-9.465865631103517,0.41568557739257816,-0.2723100781440735,-1.0564963817596436,0.07827836275100708
1778956158.0622878,-1.925446014404297,-9.443711700439454,0.38514907836914064,-0.27246829867362976,-1.054668664932251,0.08205338567495346
1778956158.0820725,-1.9450552368164062,-9.439071350097656,0.6084846496582031,-0.2948930263519287,-1.0889828205108643,0.09115126729011536
1778956158.103769,-2.1341120910644533,-9.640851745605469,0.45415557861328126,-0.31086137890815735,-1.0597270727157593,0.09984943270683289
1778956158.1254265,-2.167342987060547,-9.708660736083985,0.4638853454589844,-0.27960070967674255,-1.0524696111679077,0.08996031433343887
1778956158.1453063,-1.8910176086425783,-9.523196411132814,0.6583309936523438,-0.2065291404724121,-1.1015619039535522,0.08401079475879669
1778956158.165612,-1.9324813842773438,-9.449100494384766,0.7192543029785157,-0.25539663434028625,-1.0873236656188965,0.11539988219738007
1778956158.1874344,-1.9568806457519532,-9.39132064819336,0.6798861694335938,-0.26760661602020264,-1.1345548629760742,0.11699219793081284
1778956158.208471,-2.1251307678222657,-9.493108978271485,0.48094985961914066,-0.23816077411174774,-1.1191887855529785,0.13449954986572266
1778956158.2324665,-2.3105950927734376,-9.66435287475586,0.3448828125,-0.20616181194782257,-1.0412116050720215,0.17142879962921143
1778956158.2531493,-2.056273956298828,-9.742789764404298,0.24623794555664064,-0.1466696560382843,-1.0609053373336792,0.14950886368751526
1778956158.2734776,-1.9293379211425783,-9.67872299194336,0.41029678344726567,-0.1817682832479477,-1.0995930433273315,0.14748936891555786
1778956158.2949686,-1.9573297119140627,-9.403445434570314,0.7394622802734375,-0.22631409764289856,-1.166616678237915,0.1999153196811676
1778956158.3168588,-2.0975880432128906,-9.675429840087892,0.8150550842285157,-0.20366217195987701,-1.187757968902588,0.22282889485359192
1778956158.3411233,-2.684966583251953,-10.756631469726564,0.04146377563476563,-0.44220733642578125,-1.0641891956329346,0.3324403166770935
1778956158.3644035,-2.688559112548828,-10.726244659423829,-1.6822018432617187,-0.5515687465667725,-1.0747876167297363,0.18774491548538208
1778956158.387389,-2.7864555358886722,-10.370733947753907,-1.0985655212402343,-0.37468650937080383,-1.0355024337768555,-0.06666019558906555
1778956158.4067156,-2.541864166259766,-10.25307861328125,-0.1502874755859375,-0.3969907760620117,-0.9631378650665283,0.05279352143406868
1778956158.4271522,-2.0640577697753906,-9.959239654541015,-0.2381547546386719,-0.3565053939819336,-0.9829758405685425,0.10378798097372055
1778956158.4480798,-1.9215541076660156,-9.677974548339844,-0.2022294616699219,-0.28495919704437256,-1.0198240280151367,0.12183275073766708
1778956158.469115,-1.9893630981445314,-9.482032012939454,-0.14579681396484376,-0.22086122632026672,-0.9873592853546143,0.2114097774028778
1778956158.490435,-1.987716522216797,-9.191785583496094,-0.05553451538085938,-0.24214181303977966,-0.9546325206756592,0.3116152286529541
1778956158.512119,-1.8760487365722658,-9.064849548339843,-0.31569351196289064,-0.27335619926452637,-0.9459976553916931,0.33217641711235046
1778956158.5369198,-2.548001403808594,-9.281299438476562,-0.9419911193847657,-0.3654088079929352,-0.8983026742935181,0.2786993384361267
1778956158.5577154,-3.001857604980469,-9.320667572021485,-1.4587165832519533,-0.34221479296684265,-0.8786646127700806,0.1875731498003006
1778956158.5798135,-3.467389526367188,-9.236991577148437,-1.3382171630859376,-0.33197665214538574,-0.890532910823822,0.1101156547665596
1778956158.6012034,-3.7040473937988283,-9.095535736083985,-1.2915142822265626,-0.3472483158111572,-0.8820363879203796,0.07086119800806046
1778956158.6217785,-3.574416961669922,-8.935967559814454,-1.144669647216797,-0.3230859041213989,-0.9008907675743103,0.010423149913549423
1778956158.6432922,-3.3326696777343754,-8.991502075195314,-0.9403445434570313,-0.23370049893856049,-0.916871190071106,-0.029941048473119736
1778956158.6659102,-3.241509246826172,-9.181906127929688,-0.501756591796875,-0.18870007991790771,-0.8960725665092468,0.0065149650909006596
1778956159.6983914,-1.3448034667968751,-9.403595123291016,0.02724334716796875,0.001933184452354908,-0.14553001523017883,-0.09243424981832504
1778956159.7192757,-1.2052935791015627,-9.339079284667969,0.036524047851562505,-0.01564774475991726,-0.13918092846870422,-0.08916948735713959
1778956159.7700858,-1.1427236938476564,-9.437424774169923,0.03547622680664063,-0.05745961517095566,-0.17259615659713745,-0.08298347890377045
1778956159.795492,-1.2611274719238281,-9.897268524169922,0.28455825805664064,-0.047109417617321014,-0.2179006040096283,-0.052185386419296265
1778956159.8172922,-1.2835807800292969,-9.754166107177735,0.4249662780761719,-0.038064077496528625,-0.2460879385471344,-0.020114772021770477
1778956159.8390858,-1.334175567626953,-9.614805908203126,0.49576904296875,-0.05608585476875305,-0.2710464298725128,0.003289360087364912
1778956159.8604789,-1.4123130798339845,-9.631870422363281,0.4796026611328125,-0.048130594193935394,-0.2890048027038574,0.0297321155667305
1778956159.8814535,-1.4917977905273438,-9.604776763916016,0.5676196289062501,-0.023442121222615242,-0.31662285327911377,0.0445086695253849
1778956159.9022295,-1.4916481018066408,-9.644593963623047,0.6776408386230469,-0.017438385635614395,-0.32583656907081604,0.05237565562129021
1778956159.923321,-1.534010009765625,-9.660760345458986,0.7514373779296876,-0.05824970453977585,-0.3521193265914917,0.06622835993766785
1778956159.944687,-1.5129039001464843,-9.579479370117188,0.7946974182128906,-0.06919646263122559,-0.4017421305179596,0.08859623968601227
1778956159.9670198,-1.5311659240722657,-9.564211120605469,0.9247769165039063,-0.0811026394367218,-0.4333694577217102,0.09547411650419235
1778956159.9889803,-1.522034912109375,-9.526639251708986,0.9313632202148437,-0.0841359868645668,-0.4601958096027374,0.10811324417591095
1778956160.011921,-1.4796730041503907,-9.40329574584961,0.9229806518554688,-0.09632015228271484,-0.4686853289604187,0.13726311922073364
1778956160.0319405,-1.407223663330078,-9.402247924804689,1.0289602661132813,-0.12469714879989624,-0.4889921247959137,0.16020038723945618
1778956160.0532806,-1.3355227661132814,-9.516460418701172,0.8005352783203126,-0.1016315370798111,-0.5406500697135925,0.15346525609493256
1778956160.076072,-1.5238311767578125,-9.567504272460939,0.6138734436035157,-0.09822581708431244,-0.568152129650116,0.15982620418071747
1778956160.097752,-1.5852035522460939,-9.680369567871095,0.5757028198242188,-0.09235826134681702,-0.5469595789909363,0.17768403887748718
1778956160.1174495,-1.4953903198242189,-9.825417938232423,0.7198530578613281,-0.07600810378789902,-0.5583330988883972,0.18034425377845764
1778956160.1387193,-1.364113311767578,-9.800419921875001,0.7499404907226563,-0.054504893720149994,-0.5880780220031738,0.18929408490657806
1778956160.1608949,-1.3756393432617189,-9.674681396484376,0.7770341491699219,-0.06405995041131973,-0.6087508201599121,0.21051016449928284
1778956160.2750323,-2.149679718017578,-11.21108642578125,0.34278717041015627,-0.31456953287124634,-0.5773352384567261,0.2977809011936188
1778956160.3521483,-1.4858102416992187,-9.603878631591797,0.05239105224609375,-0.21077045798301697,-0.6444615721702576,0.26356616616249084
1778956160.392953,-1.8456619262695313,-9.4794873046875,-0.42960662841796876,-0.1633886992931366,-0.5890688300132751,0.23554334044456482
1778956160.441446,-2.558180236816406,-9.363777923583985,-0.7994874572753906,-0.2043074667453766,-0.5364017486572266,0.10930338501930237
1778956161.5322902,-1.6226257324218751,-9.583071899414064,0.009131011962890626,0.10804623365402222,0.10220453888177872,-0.04265497624874115
1778956161.5555096,-1.81781982421875,-10.031988372802735,0.4099974060058594,0.11555491387844086,0.1032511293888092,-0.017931804060935974
1778956161.5783105,-1.8089881896972657,-10.32582733154297,0.41149429321289066,0.11453138291835785,0.06386586278676987,-0.045701656490564346
1778956161.5985043,-1.8386265563964845,-10.607840881347657,0.09235794067382813,0.09403245151042938,-0.000959381926804781,-0.11199012398719788
1778956161.6210759,-1.9154168701171876,-10.248587951660157,-0.3546125793457031,0.09479624778032303,-0.06159833446145058,-0.16483736038208008
1778956161.642303,-1.8672171020507813,-9.884095916748047,-0.21929397583007815,0.13260774314403534,-0.0846531018614769,-0.17833292484283447
1778956161.663752,-1.5533198547363283,-9.422605590820313,0.2625540161132813,0.1339850276708603,-0.09074974060058594,-0.16304506361484528
1778956161.6857598,-1.4205459594726564,-9.214388580322266,0.36179763793945313,0.09496098011732101,-0.0975537896156311,-0.15343797206878662
1778956161.7080693,-1.317410430908203,-9.237740020751954,0.25297393798828127,0.05396663397550583,-0.09106714278459549,-0.14154240489006042
1778956161.7283638,-1.3169613647460938,-9.428593139648438,0.13112731933593752,0.02585580199956894,-0.051185108721256256,-0.12747585773468018
1778956161.770239,-1.289718017578125,-9.739197235107422,0.2950364685058594,0.07130005210638046,-0.03935492783784866,-0.13652262091636658
1778956161.793784,-1.2638218688964844,-9.749525756835938,0.4409829711914063,0.060714468359947205,-0.07424735277891159,-0.10525552928447723
1778956161.833992,-1.3355227661132814,-9.677675170898437,0.39622604370117187,0.057037126272916794,-0.07923951745033264,-0.07242648303508759
1778956161.8672225,-1.5660433959960938,-9.53741683959961,0.6087840270996094,0.1026153415441513,-0.14632369577884674,-0.015457991510629654
1778956161.8929229,-1.518292694091797,-9.64279769897461,0.7438032531738281,0.10968714207410812,-0.21100254356861115,0.004914373159408569
1778956161.9529028,-1.6131953430175783,-9.526788940429688,0.9229806518554688,0.07459177076816559,-0.3973347544670105,0.027351785451173782
1778956161.9732234,-1.542242889404297,-9.502090301513672,0.99393310546875,0.03192996233701706,-0.43570569157600403,0.0387013778090477
1778956161.9933865,-1.4102174377441408,-9.48517547607422,0.7851173400878907,0.0500517338514328,-0.47685566544532776,0.05512431263923645
1778956162.015249,-1.285975799560547,-9.396859130859376,0.7457492065429688,0.10012255609035492,-0.5210211873054504,0.06484697759151459
1778956162.0369232,-1.215472412109375,-9.313183135986328,0.89813232421875,0.1107444241642952,-0.5550689101219177,0.08829265087842941
1778956162.0573704,-1.2037966918945313,-9.3645263671875,1.0681787109375,0.07025999575853348,-0.5723443627357483,0.11254633963108063
1778956162.0801091,-1.0687774658203126,-9.442663879394532,1.0579998779296875,0.03658686950802803,-0.5733816027641296,0.11974325776100159
1778956162.102594,-0.8388555908203126,-9.393565979003906,1.0454260253906251,0.03891398012638092,-0.5808773040771484,0.12389057874679565
1778956162.1247153,-0.8767268371582032,-9.48472640991211,1.2852273559570313,0.02970753237605095,-0.5871795415878296,0.1524290144443512
1778956162.1456995,-0.9460327148437501,-9.682465209960938,1.3479469299316407,0.023556675761938095,-0.6097474098205566,0.1710732877254486
1778956162.165937,-1.06099365234375,-9.9297509765625,1.043031005859375,0.034488435834646225,-0.6314904689788818,0.1804174929857254
1778956162.1876984,-1.0280621337890625,-10.158924407958985,0.9491761779785157,0.04468469321727753,-0.646341860294342,0.17296546697616577
1778956162.2087426,-0.9632469177246095,-10.126292266845704,1.1505075073242188,-0.01596476137638092,-0.674782931804657,0.16959361732006073
1778956162.232121,-0.8982820129394532,-10.08393035888672,1.0291099548339844,-0.07969846576452255,-0.7417592406272888,0.17484617233276367
1778956162.2539563,-1.0313552856445314,-10.37851776123047,0.9996212768554688,-0.16020730137825012,-0.7721158266067505,0.15739049017429352
1778956162.2804267,-1.2650193786621093,-10.952274627685547,0.6436614990234375,-0.28013959527015686,-0.7639699578285217,0.11835308372974396
1778956162.3021903,-2.0710931396484376,-12.061168670654297,-0.7081773376464844,-0.8360269069671631,-0.663166880607605,0.024970944970846176
1778956162.3222897,-2.2662872314453124,-11.291169891357422,-2.3571482849121095,-0.5111117362976074,-0.7077272534370422,-0.2314174473285675
1778956162.3443487,-2.2170396423339844,-10.179731140136719,-0.9979747009277344,0.02380337379872799,-0.6146832704544067,-0.2913047671318054
1778956162.365511,-1.7224681091308596,-8.595575408935547,1.7287550354003907,0.019992901012301445,-0.44931483268737793,-0.03395363688468933
1778956162.3850381,-1.0359956359863283,-7.554789733886719,2.5357269287109374,-0.18852335214614868,-0.5225256085395813,0.22341850399971008
1778956162.4055874,-0.8625064086914063,-8.121660919189454,1.1576925659179689,-0.2920887768268585,-0.7223617434501648,0.3207818269729614
1778956162.4296088,-1.500479736328125,-9.313482513427735,-0.22752685546875,-0.4842546880245209,-0.8203753232955933,0.3340259790420532
1778956162.453251,-3.081042938232422,-9.88229965209961,-1.4314732360839844,-0.7234047055244446,-0.7225283980369568,0.22046507894992828
1778956162.4729805,-3.5823504638671877,-9.342073059082031,-1.5832575988769533,-0.6694397330284119,-0.6387661099433899,0.05189497396349907
1778956162.4979486,-3.1961535644531254,-8.366701354980469,-0.8080197143554688,-0.5403599739074707,-0.5987188816070557,-0.11364606767892838
1778956162.5191896,-2.8816575622558593,-8.259823608398438,-0.29952713012695314,-0.4716016948223114,-0.5641713738441467,-0.08388151228427887
1778956162.5396037,-2.6012905883789066,-8.355025634765626,0.39113662719726566,-0.4643075168132782,-0.5690386295318604,-0.04051590710878372
1778956162.559963,-2.634222106933594,-8.689729614257812,0.39712417602539063,-0.4496076703071594,-0.5492479801177979,0.010611725971102715
1778956162.5824366,-2.6435028076171876,-9.134604492187501,0.41808059692382815,-0.44103509187698364,-0.5689600706100464,0.02184147574007511
1778956162.6042278,-2.6764343261718753,-9.350755004882814,0.018262023925781252,-0.50810706615448,-0.5789107084274292,0.003974594175815582
1778956162.6545684,-2.985242156982422,-9.395212554931641,-0.5429209899902344,-0.5883175730705261,-0.564117968082428,-0.024351056665182114
1778956162.7053568,-2.4903712463378906,-8.769962768554688,-0.7334747314453125,-0.5248965620994568,-0.44972482323646545,-0.2902551591396332
1778956162.7616277,-1.7881814575195314,-8.235574035644532,-0.9605525207519532,-0.488013356924057,-0.23202791810035706,-0.22185266017913818
1778956162.8294244,-2.2317091369628907,-8.890013122558594,-1.287322998046875,-0.5606601238250732,-0.060638852417469025,-0.20758290588855743
1778956162.8547914,-2.0013381958007814,-8.843010864257813,-1.3253439331054688,-0.5728828310966492,-0.0541272833943367,-0.3215118646621704
1778956162.8883696,-1.8449134826660156,-8.882378997802736,-1.0497669982910156,-0.6186428666114807,-0.052908699959516525,-0.41915059089660645
1778956162.9317653,-1.59747802734375,-8.717272338867188,-1.9705023193359377,-0.6884729266166687,0.007095187436789274,-0.46980202198028564
1778956162.9539523,-1.3651611328125002,-8.851842498779297,-2.1315673828125,-0.7151211500167847,0.03862296789884567,-0.4535176157951355
1778956162.9741971,-1.2049942016601562,-9.018745422363281,-2.115550689697266,-0.6977809071540833,0.07089155167341232,-0.4260774552822113
1778956162.996591,-0.9589059448242188,-8.96740219116211,-2.049238586425781,-0.6778543591499329,0.023242086172103882,-0.421657919883728
1778956163.017484,-1.1033555603027345,-8.848100280761718,-2.448458404541016,-0.79582679271698,-0.006976268254220486,-0.4220837652683258
1778956163.0397725,-1.0482701110839845,-9.239386596679688,-2.711012420654297,-0.7882911562919617,-0.0029539847746491432,-0.4244246780872345
1778956163.061249,-0.8830137634277344,-9.755962371826172,-2.63212646484375,-0.5779621601104736,0.027753593400120735,-0.42367100715637207
1778956163.0827096,-0.7439529418945313,-9.909542999267579,-2.259251861572266,-0.44753843545913696,-0.014837447553873062,-0.4252933859825134
1778956163.10404,-0.6625222778320313,-9.693991241455079,-2.2013223266601565,-0.48883458971977234,-0.05785960331559181,-0.40582969784736633
1778956163.1263232,-0.7162605285644532,-9.739197235107422,-2.508333892822266,-0.5257749557495117,-0.06514525413513184,-0.30663996934890747
1778956163.1483276,-0.9038204956054688,-9.699380035400392,-2.7336154174804688,-0.49536800384521484,-0.04374097287654877,-0.263509064912796
1778956163.1682706,-0.9392967224121094,-9.322164459228516,-3.050955505371094,-0.4377972483634949,-0.007219148334115744,-0.24767334759235382
1778956163.1892912,-0.83586181640625,-9.079818420410156,-3.1753468322753906,-0.3836013078689575,-0.026316968724131584,-0.23973020911216736
1778956163.2107038,-0.5541476440429688,-9.116941223144531,-3.1561866760253907,-0.30848556756973267,-0.081307053565979,-0.24339604377746582
1778956163.2315497,-0.43529479980468755,-9.181307373046875,-3.0602362060546877,-0.22858108580112457,-0.12026327103376389,-0.2158171385526657
1778956163.2531126,-0.4794529724121094,-9.156459045410157,-3.0145811462402343,-0.17602263391017914,-0.15307313203811646,-0.15349118411540985
1778956163.2727358,-0.5682183837890625,-9.08565628051758,-2.971770172119141,-0.17215058207511902,-0.17278902232646942,-0.09796351194381714
1778956163.2963285,-0.4704716491699219,-9.077872467041017,-3.176694030761719,-0.12220107764005661,-0.1379140019416809,-0.02140958607196808
1778956163.3485928,-0.3415896606445313,-9.151519317626954,-3.5721716308593754,-0.04756771773099899,-0.2033109962940216,-0.02300560288131237
